ID,Snellen Denominator,Grip Strength,Chest Strength,Handness,cue_image_1,Face_Set_Code,Face_Type_Code,letter,corAns,orientation,experimental_trials.thisN,experimental_trials.thisIndex,responsebutton.keys,responsebutton.corr,responsebutton.rt
1,30,120,105,1,13055,1,1,1,6,0,0,349,6,1,1.0167879
1,30,120,105,1,12555,1,3,1,5,180,1,756,5,1,0.5667344
1,30,120,105,1,14355,1,1,1,5,180,2,388,5,1,0.433384
1,30,120,105,1,6399,2,2,2,6,0,3,599,6,1,0.3500556
1,30,120,105,1,7599,2,1,2,6,0,4,631,6,1,0.3833918
1,30,120,105,1,399,2,3,1,5,180,5,432,5,1,0.3334726
1,30,120,105,1,6199,2,3,2,5,180,6,162,5,1,0.6166315
1,30,120,105,1,4399,2,1,1,5,180,7,556,5,1,0.3501175
1,30,120,105,1,4299,2,3,1,5,180,8,552,5,1,0.3516148
1,30,120,105,1,17355,1,1,2,5,180,9,850,5,1,0.3834756
1,30,120,105,1,3899,2,2,2,5,180,10,542,6,0,0.3500547
1,30,120,105,1,13199,2,2,1,5,180,11,356,5,1,0.4167012
1,30,120,105,1,10355,1,2,1,5,180,12,692,5,1,0.3667059
1,30,120,105,1,14499,2,3,1,6,0,13,393,6,1,0.3666859
1,30,120,105,1,13055,1,2,2,5,180,14,350,5,1,0.3501403
1,30,120,105,1,2955,1,1,2,5,180,15,82,5,1,0.3000509
1,30,120,105,1,12099,2,2,1,5,180,16,740,6,0,0.333379
1,30,120,105,1,2999,2,1,1,6,0,17,85,6,1,0.4167423
1,30,120,105,1,4099,2,1,1,5,180,18,544,5,1,0.3166402
1,30,120,105,1,3355,1,1,1,5,180,19,100,5,1,0.3333846
1,30,120,105,1,399,2,1,2,6,0,20,7,6,1,0.3001285
1,30,120,105,1,4299,2,1,1,6,0,21,553,5,0,0.3166488
1,30,120,105,1,3199,2,3,1,6,0,22,93,6,1,0.6666491
1,30,120,105,1,7799,2,1,1,6,0,23,637,6,1,0.4667548
1,30,120,105,1,12355,1,3,1,5,180,24,324,5,1,0.3500394
1,30,120,105,1,3355,1,3,2,6,0,25,99,6,1,0.2834636
1,30,120,105,1,9699,2,3,1,6,0,26,249,6,1,0.4334622
1,30,120,105,1,3155,1,2,2,5,180,27,518,5,1,0.5001509
1,30,120,105,1,5899,2,1,1,6,0,28,157,6,1,0.4333539
1,30,120,105,1,9199,2,2,1,5,180,29,236,5,1,0.3833869
1,30,120,105,1,13255,1,2,2,6,0,30,359,6,1,0.3001249
1,30,120,105,1,1699,2,2,2,6,0,31,467,6,1,0.3334304
1,30,120,105,1,499,2,3,1,5,180,32,12,5,1,0.3334223
1,30,120,105,1,13199,2,1,2,6,0,33,355,6,1,0.3001475
1,30,120,105,1,599,2,1,2,5,180,34,442,5,1,0.4166599
1,30,120,105,1,12355,1,1,1,6,0,35,325,6,1,0.2834225
1,30,120,105,1,6999,2,2,2,6,0,36,191,6,1,0.3666355
1,30,120,105,1,455,1,3,1,6,0,37,9,6,1,0.4334385
1,30,120,105,1,13699,2,1,2,6,0,38,367,6,1,0.3667839
1,30,120,105,1,15099,2,2,1,6,0,39,401,6,1,0.3849566
1,30,120,105,1,10699,2,2,1,5,180,40,704,5,1,0.3499397
1,30,120,105,1,10355,1,3,2,5,180,41,690,5,1,0.3833853
1,30,120,105,1,15399,2,2,2,6,0,42,407,6,1,0.2837203
1,30,120,105,1,2655,1,3,2,6,0,43,495,6,1,0.2834727
1,30,120,105,1,6699,2,3,2,6,0,44,603,6,1,0.2833882
1,30,120,105,1,8199,2,3,2,6,0,45,219,6,1,0.283468
1,30,120,105,1,6299,2,1,2,5,180,46,166,5,1,0.5668025
1,30,120,105,1,10155,1,1,2,6,0,47,259,6,1,0.3333767
1,30,120,105,1,14699,2,3,1,5,180,48,396,5,1,0.4667766
1,30,120,105,1,4399,2,3,2,6,0,49,555,6,1,0.4000976
1,30,120,105,1,12855,1,2,1,5,180,50,344,5,1,0.3004031
1,30,120,105,1,4899,2,3,1,5,180,51,564,5,1,0.3333955
1,30,120,105,1,3699,2,1,2,6,0,52,535,6,1,0.3166352
1,30,120,105,1,7299,2,2,2,5,180,53,626,5,1,0.4167833
1,30,120,105,1,7799,2,3,1,5,180,54,636,5,1,0.4000519
1,30,120,105,1,2699,2,1,2,6,0,55,499,6,1,0.3513573
1,30,120,105,1,10555,1,2,1,5,180,56,272,5,1,0.3666448
1,30,120,105,1,4155,1,1,1,6,0,57,121,6,1,0.3833276
1,30,120,105,1,7099,2,1,2,6,0,58,619,6,1,0.4335649
1,30,120,105,1,11099,2,2,2,6,0,59,719,5,0,0.3667063
1,30,120,105,1,13499,2,1,2,5,180,60,790,5,1,0.5501484
1,30,120,105,1,3799,2,1,1,5,180,61,112,5,1,0.4667177
1,30,120,105,1,11699,2,3,1,6,0,62,729,6,1,0.4167123
1,30,120,105,1,13699,2,2,2,5,180,63,794,5,1,0.4000256
1,30,120,105,1,10455,1,3,1,6,0,64,693,6,1,0.4843984
1,30,120,105,1,6199,2,2,1,5,180,65,164,5,1,0.4166924
1,30,120,105,1,12799,2,2,2,6,0,66,767,6,1,0.3833792
1,30,120,105,1,10199,2,2,1,6,0,67,689,5,0,0.5001335
1,30,120,105,1,6399,2,1,1,5,180,68,172,5,1,0.4166934
1,30,120,105,1,2299,2,3,1,5,180,69,60,5,1,0.5668035
1,30,120,105,1,10355,1,1,1,6,0,70,265,6,1,0.3500799
1,30,120,105,1,11699,2,2,2,6,0,71,731,6,1,0.3167124
1,30,120,105,1,1399,2,1,1,6,0,72,37,5,0,0.3167973
1,30,120,105,1,13699,2,2,1,5,180,73,368,5,1,0.4833781
1,30,120,105,1,13255,1,3,2,6,0,74,783,6,1,0.3334714
1,30,120,105,1,16199,2,2,1,5,180,75,416,5,1,0.4333915
1,30,120,105,1,14699,2,3,2,5,180,76,822,5,1,0.5166832
1,30,120,105,1,6699,2,1,1,5,180,77,604,5,1,0.4001265
1,30,120,105,1,14055,1,1,1,5,180,78,376,5,1,0.3667939
1,30,120,105,1,6355,1,2,1,5,180,79,596,5,1,0.3508109
1,30,120,105,1,13855,1,1,1,5,180,80,796,5,1,0.3669882
1,30,120,105,1,3399,2,1,1,6,0,81,529,6,1,0.4001356
1,30,120,105,1,15899,2,3,1,6,0,82,837,6,1,0.3001275
1,30,120,105,1,4155,1,3,2,5,180,83,546,5,1,0.3167055
1,30,120,105,1,11099,2,3,2,6,0,84,291,6,1,0.3332963
1,30,120,105,1,15099,2,3,2,6,0,85,399,6,1,0.2666968
1,30,120,105,1,6599,2,1,1,6,0,86,601,5,0,0.3679977
1,30,120,105,1,5299,2,1,2,6,0,87,571,6,1,0.3001305
1,30,120,105,1,11755,1,1,2,6,0,88,307,6,1,0.3834444
1,30,120,105,1,17355,1,3,2,6,0,89,423,6,1,0.2833987
1,30,120,105,1,2699,2,2,1,5,180,90,500,5,1,0.3334243
1,30,120,105,1,13255,1,1,2,5,180,91,358,6,0,0.4167324
1,30,120,105,1,12299,2,3,1,6,0,92,321,6,1,0.5688229
1,30,120,105,1,9699,2,3,2,6,0,93,675,6,1,0.4000174
1,30,120,105,1,7999,2,2,2,6,0,94,215,6,1,0.3512627
1,30,120,105,1,10099,2,1,2,5,180,95,682,5,1,0.4000277
1,30,120,105,1,11399,2,1,2,5,180,96,298,5,1,0.3333707
1,30,120,105,1,799,2,3,1,5,180,97,444,5,1,0.4833152
1,30,120,105,1,10599,2,1,1,5,180,98,700,5,1,0.3333737
1,30,120,105,1,14055,1,2,2,6,0,99,803,6,1,0.3500406
1,30,120,105,1,7999,2,1,2,5,180,100,214,5,1,0.4501497
1,30,120,105,1,499,2,1,2,6,0,101,439,6,1,0.4000363
1,30,120,105,1,2099,2,1,2,5,180,102,478,5,1,0.383348
1,30,120,105,1,3355,1,2,2,6,0,103,527,6,1,0.3501411
1,30,120,105,1,10199,2,3,1,6,0,104,261,5,0,0.3334494
1,30,120,105,1,6955,1,2,1,5,180,105,188,5,1,0.6167903
1,30,120,105,1,1699,2,1,1,5,180,106,40,5,1,0.4167844
1,30,120,105,1,14355,1,2,1,6,0,107,389,6,1,0.4500231
1,30,120,105,1,6955,1,3,1,5,180,108,612,5,1,0.3833704
1,30,120,105,1,12199,2,3,2,5,180,109,318,5,1,0.4833983
1,30,120,105,1,1699,2,3,1,6,0,110,465,6,1,0.5834526
1,30,120,105,1,1099,2,1,1,5,180,111,28,5,1,0.751483
1,30,120,105,1,2255,1,1,2,5,180,112,58,6,0,0.3167077
1,30,120,105,1,3899,2,2,1,5,180,113,116,5,1,0.6334111
1,30,120,105,1,17255,1,1,1,6,0,114,421,6,1,0.3666945
1,30,120,105,1,1199,2,2,1,5,180,115,32,5,1,0.5501262
1,30,120,105,1,10599,2,3,2,6,0,116,699,6,1,0.3666847
1,30,120,105,1,10155,1,3,2,5,180,117,258,5,1,0.4011451
1,30,120,105,1,15899,2,2,1,6,0,118,413,6,1,0.366704
1,30,120,105,1,13199,2,3,2,5,180,119,354,5,1,0.3833973
1,30,120,105,1,17355,1,3,1,6,0,120,849,6,1,0.4666969
1,30,120,105,1,10555,1,3,1,5,180,121,696,5,1,0.3666871
1,30,120,105,1,12699,2,3,2,5,180,122,762,5,1,0.4500976
1,30,120,105,1,11599,2,1,2,6,0,123,727,6,1,0.3501244
1,30,120,105,1,299,2,2,2,6,0,124,431,6,1,0.3667812
1,30,120,105,1,4799,2,1,2,5,180,125,562,5,1,0.4168455
1,30,120,105,1,11599,2,2,1,5,180,126,728,5,1,0.3674198
1,30,120,105,1,3699,2,2,2,5,180,127,110,6,0,0.316793
1,30,120,105,1,15299,2,1,2,6,0,128,403,6,1,0.4667871
1,30,120,105,1,8799,2,3,2,6,0,129,231,6,1,0.4667167
1,30,120,105,1,2799,2,2,2,6,0,130,503,6,1,0.316693
1,30,120,105,1,14399,2,3,2,5,180,131,390,5,1,0.3833768
1,30,120,105,1,8699,2,2,2,5,180,132,230,5,1,0.3014354
1,30,120,105,1,399,2,2,1,5,180,133,8,5,1,0.4167874
1,30,120,105,1,12555,1,2,2,5,180,134,758,5,1,0.3833985
1,30,120,105,1,11099,2,1,1,5,180,135,292,5,1,0.3835962
1,30,120,105,1,10999,2,2,2,5,180,136,290,5,1,0.3501279
1,30,120,105,1,7199,2,3,2,6,0,137,195,6,1,0.2834739
1,30,120,105,1,14699,2,1,2,6,0,138,823,6,1,0.3166579
1,30,120,105,1,2299,2,2,2,5,180,139,62,5,1,0.4000498
1,30,120,105,1,2655,1,1,1,5,180,140,496,5,1,0.4168103
1,30,120,105,1,17255,1,3,2,5,180,141,846,5,1,0.3512257
1,30,120,105,1,4299,2,2,2,5,180,142,554,5,1,0.3000397
1,30,120,105,1,15299,2,2,2,5,180,143,830,5,1,0.3834223
1,30,120,105,1,2099,2,2,1,6,0,144,53,6,1,0.3833467
1,30,120,105,1,999,2,2,2,5,180,145,26,5,1,0.2668064
1,30,120,105,1,3399,2,2,1,5,180,146,104,5,1,0.5167137
1,30,120,105,1,3699,2,1,1,6,0,147,109,6,1,0.3334233
1,30,120,105,1,9699,2,1,2,5,180,148,250,5,1,0.3168106
1,30,120,105,1,10855,1,2,1,5,180,149,284,5,1,0.3668195
1,30,120,105,1,11755,1,2,2,5,180,150,734,5,1,0.3675785
1,30,120,105,1,9699,2,2,2,6,0,151,251,6,1,0.3500338
1,30,120,105,1,8499,2,3,2,6,0,152,651,6,1,0.3000448
1,30,120,105,1,7399,2,1,1,5,180,153,628,5,1,0.3499955
1,30,120,105,1,9599,2,1,2,6,0,154,247,6,1,0.3334187
1,30,120,105,1,4155,1,3,1,5,180,155,120,5,1,0.3500042
1,30,120,105,1,1899,2,2,2,5,180,156,50,5,1,0.2834846
1,30,120,105,1,11199,2,3,2,5,180,157,294,5,1,0.3500476
1,30,120,105,1,10199,2,3,2,6,0,158,687,6,1,0.3178594
1,30,120,105,1,12999,2,3,2,6,0,159,771,6,1,0.3166647
1,30,120,105,1,7599,2,3,2,5,180,160,630,5,1,0.3333483
1,30,120,105,1,1255,1,1,2,5,180,161,34,5,1,0.3334603
1,30,120,105,1,2799,2,3,2,6,0,162,75,6,1,0.6333972
1,30,120,105,1,14199,2,3,1,6,0,163,381,6,1,0.5668007
1,30,120,105,1,12499,2,1,2,5,180,164,754,5,1,0.3834041
1,30,120,105,1,16299,2,3,1,6,0,165,417,6,1,0.4667111
1,30,120,105,1,14355,1,1,2,5,180,166,814,5,1,0.3842722
1,30,120,105,1,6199,2,3,1,5,180,167,588,5,1,0.6833737
1,30,120,105,1,10455,1,3,2,6,0,168,267,6,1,0.3502674
1,30,120,105,1,6855,1,1,2,6,0,169,607,6,1,0.2499679
1,30,120,105,1,7099,2,2,2,5,180,170,194,5,1,0.3334252
1,30,120,105,1,10355,1,2,2,5,180,171,266,5,1,0.333346
1,30,120,105,1,8499,2,2,2,6,0,172,227,6,1,0.3000422
1,30,120,105,1,6099,2,3,2,6,0,173,159,6,1,0.3000164
1,30,120,105,1,3199,2,2,1,6,0,174,521,5,0,0.3001377
1,30,120,105,1,10155,1,2,1,5,180,175,260,5,1,0.4357925
1,30,120,105,1,10099,2,3,1,6,0,176,681,6,1,0.3499316
1,30,120,105,1,7099,2,2,1,5,180,177,620,5,1,0.4500242
1,30,120,105,1,4999,2,2,1,6,0,178,569,6,1,0.3833808
1,30,120,105,1,12499,2,3,2,6,0,179,327,6,1,0.4000502
1,30,120,105,1,12355,1,2,2,5,180,180,326,5,1,0.3167218
1,30,120,105,1,1199,2,2,2,5,180,181,458,6,0,0.3011491
1,30,120,105,1,8099,2,2,2,5,180,182,218,5,1,0.3174581
1,30,120,105,1,5299,2,3,2,5,180,183,570,5,1,0.3336832
1,30,120,105,1,15799,2,2,2,5,180,184,410,5,1,0.3666918
1,30,120,105,1,7699,2,2,2,6,0,185,635,6,1,0.3334079
1,30,120,105,1,10555,1,1,1,6,0,186,697,6,1,0.5000221
1,30,120,105,1,15399,2,1,2,5,180,187,406,5,1,0.4001477
1,30,120,105,1,1899,2,1,1,6,0,188,49,6,1,0.3500356
1,30,120,105,1,1799,2,3,2,5,180,189,42,5,1,0.3501432
1,30,120,105,1,4899,2,1,1,6,0,190,565,6,1,0.3506404
1,30,120,105,1,7199,2,3,1,6,0,191,621,6,1,0.31679
1,30,120,105,1,2799,2,1,1,5,180,192,76,5,1,0.3000232
1,30,120,105,1,13899,2,3,2,5,180,193,798,5,1,0.4001476
1,30,120,105,1,6699,2,2,1,6,0,194,605,6,1,0.3166838
1,30,120,105,1,899,2,3,2,6,0,195,447,6,1,0.3835625
1,30,120,105,1,4999,2,1,1,5,180,196,568,5,1,0.3000448
1,30,120,105,1,11199,2,3,1,5,180,197,720,5,1,0.3510067
1,30,120,105,1,5299,2,2,1,5,180,198,572,5,1,0.3834175
1,30,120,105,1,2155,1,2,2,5,180,199,482,5,1,0.4667373
1,30,120,105,1,12855,1,1,1,6,0,200,769,6,1,0.3167581
1,30,120,105,1,12199,2,2,2,5,180,201,746,5,1,0.3833308
1,30,120,105,1,11199,2,2,2,5,180,202,722,5,1,0.4166548
1,30,120,105,1,5699,2,1,1,6,0,203,577,6,1,0.30175
1,30,120,105,1,8199,2,1,1,5,180,204,220,5,1,0.3667148
1,30,120,105,1,12499,2,3,1,6,0,205,753,6,1,0.4500667
1,30,120,105,1,12155,1,1,2,5,180,206,742,5,1,0.3504438
1,30,120,105,1,3299,2,2,2,5,180,207,98,5,1,0.3167021
1,30,120,105,1,6855,1,2,2,5,180,208,182,5,1,0.3501409
1,30,120,105,1,12155,1,3,2,6,0,209,315,6,1,0.3834105
1,30,120,105,1,14399,2,3,1,5,180,210,816,5,1,0.3166271
1,30,120,105,1,4199,2,2,2,6,0,211,551,6,1,0.3167724
1,30,120,105,1,499,2,3,2,5,180,212,438,5,1,0.3346514
1,30,120,105,1,5799,2,2,1,6,0,213,581,6,1,0.4001282
1,30,120,105,1,5799,2,3,2,6,0,214,579,6,1,0.3834666
1,30,120,105,1,8099,2,1,2,6,0,215,643,6,1,0.4501319
1,30,120,105,1,499,2,2,1,5,180,216,440,5,1,0.3334491
1,30,120,105,1,13899,2,2,2,5,180,217,374,5,1,0.4833157
1,30,120,105,1,2299,2,2,1,5,180,218,488,5,1,0.4501021
1,30,120,105,1,199,2,2,1,5,180,219,428,5,1,0.3833757
1,30,120,105,1,6355,1,3,1,5,180,220,168,5,1,0.3345677
1,30,120,105,1,1899,2,1,2,6,0,221,475,6,1,0.3001375
1,30,120,105,1,14055,1,2,1,6,0,222,377,5,0,0.300408
1,30,120,105,1,11099,2,3,1,6,0,223,717,6,1,0.3666989
1,30,120,105,1,799,2,3,2,5,180,224,18,5,1,0.3353086
1,30,120,105,1,799,2,2,1,5,180,225,20,5,1,0.4333773
1,30,120,105,1,3099,2,2,1,6,0,226,89,6,1,0.3166605
1,30,120,105,1,13855,1,2,1,6,0,227,797,6,1,0.3001262
1,30,120,105,1,13699,2,3,1,5,180,228,792,5,1,0.3833749
1,30,120,105,1,2899,2,3,1,5,180,229,504,5,1,0.5002454
1,30,120,105,1,7299,2,3,1,5,180,230,624,5,1,0.4500216
1,30,120,105,1,9599,2,3,1,5,180,231,672,5,1,0.3333977
1,30,120,105,1,3155,1,1,2,6,0,232,91,6,1,0.2667965
1,30,120,105,1,1855,1,3,2,6,0,233,471,6,1,0.4166815
1,30,120,105,1,7299,2,3,2,5,180,234,198,5,1,0.3668062
1,30,120,105,1,15899,2,3,2,6,0,235,411,6,1,0.3834529
1,30,120,105,1,3399,2,3,2,5,180,236,102,5,1,0.3501258
1,30,120,105,1,6355,1,2,2,5,180,237,170,5,1,0.4667367
1,30,120,105,1,13299,2,3,1,5,180,238,360,5,1,0.3501462
1,30,120,105,1,199,2,1,2,6,0,239,427,6,1,0.3500713
1,30,120,105,1,14499,2,2,2,6,0,240,395,6,1,0.300056
1,30,120,105,1,13255,1,2,1,6,0,241,785,6,1,0.2834709
1,30,120,105,1,11599,2,3,1,5,180,242,300,5,1,0.4682836
1,30,120,105,1,899,2,3,1,6,0,243,21,6,1,0.350047
1,30,120,105,1,199,2,3,1,5,180,244,0,5,1,0.4983857
1,30,120,105,1,14499,2,3,2,6,0,245,819,6,1,0.3667716
1,30,120,105,1,4999,2,2,2,6,0,246,143,6,1,0.3334103
1,30,120,105,1,12299,2,2,2,6,0,247,323,6,1,0.2833698
1,30,120,105,1,13255,1,1,1,5,180,248,784,5,1,0.3000293
1,30,120,105,1,16299,2,1,2,5,180,249,418,6,0,0.3000367
1,30,120,105,1,1199,2,3,1,5,180,250,456,5,1,0.3188388
1,30,120,105,1,6299,2,1,1,5,180,251,592,5,1,0.3000377
1,30,120,105,1,7699,2,1,1,5,180,252,208,5,1,0.4188343
1,30,120,105,1,5699,2,3,2,5,180,253,150,6,0,0.3333864
1,30,120,105,1,10555,1,2,2,5,180,254,698,5,1,0.3167754
1,30,120,105,1,6699,2,3,1,6,0,255,177,5,0,0.3001049
1,30,120,105,1,2999,2,3,2,5,180,256,510,5,1,0.3666811
1,30,120,105,1,12499,2,2,2,6,0,257,755,6,1,0.436071
1,30,120,105,1,4899,2,2,2,5,180,258,566,5,1,0.3667008
1,30,120,105,1,3599,2,3,1,6,0,259,105,6,1,0.4850901
1,30,120,105,1,1855,1,1,2,5,180,260,46,5,1,0.3000454
1,30,120,105,1,10699,2,1,1,6,0,261,277,6,1,0.3833895
1,30,120,105,1,12799,2,1,1,5,180,262,340,5,1,0.3833822
1,30,120,105,1,2099,2,2,2,6,0,263,479,6,1,0.300089
1,30,120,105,1,12799,2,1,2,5,180,264,766,5,1,0.3334162
1,30,120,105,1,2899,2,1,1,6,0,265,505,6,1,0.4167832
1,30,120,105,1,12555,1,2,1,5,180,266,332,5,1,0.335285
1,30,120,105,1,6955,1,2,2,5,180,267,614,5,1,0.466775
1,30,120,105,1,7999,2,3,2,6,0,268,639,6,1,0.3000566
1,30,120,105,1,8399,2,1,1,6,0,269,649,6,1,0.3167002
1,30,120,105,1,11699,2,1,1,5,180,270,304,5,1,0.3334342
1,30,120,105,1,2599,2,2,1,5,180,271,68,5,1,0.3334275
1,30,120,105,1,13855,1,3,2,6,0,272,795,6,1,0.3168035
1,30,120,105,1,7699,2,2,1,6,0,273,209,6,1,0.4000324
1,30,120,105,1,6399,2,1,2,5,180,274,598,5,1,0.3667657
1,30,120,105,1,9899,2,3,2,5,180,275,678,5,1,0.4500409
1,30,120,105,1,15399,2,2,1,6,0,276,833,6,1,0.2667709
1,30,120,105,1,12855,1,1,2,6,0,277,343,6,1,0.3667208
1,30,120,105,1,4899,2,2,1,5,180,278,140,5,1,0.383405
1,30,120,105,1,10855,1,3,2,5,180,279,282,5,1,0.4499887
1,30,120,105,1,13199,2,2,2,5,180,280,782,5,1,0.35014
1,30,120,105,1,8699,2,3,2,5,180,281,654,5,1,0.3501421
1,30,120,105,1,10699,2,3,1,5,180,282,276,6,0,0.3000152
1,30,120,105,1,14299,2,1,1,6,0,283,385,6,1,0.3666821
1,30,120,105,1,14355,1,3,2,6,0,284,387,6,1,0.3833552
1,30,120,105,1,16299,2,2,1,6,0,285,845,6,1,0.4001193
1,30,120,105,1,3699,2,3,1,5,180,286,108,5,1,0.3333813
1,30,120,105,1,4399,2,3,1,6,0,287,129,6,1,0.41676
1,30,120,105,1,10155,1,2,2,5,180,288,686,5,1,0.4167809
1,30,120,105,1,7299,2,1,2,6,0,289,199,6,1,0.2834368
1,30,120,105,1,6955,1,1,1,6,0,290,613,6,1,0.4999842
1,30,120,105,1,5799,2,2,2,6,0,291,155,6,1,0.3334072
1,30,120,105,1,10355,1,1,2,6,0,292,691,6,1,0.3000474
1,30,120,105,1,1399,2,3,1,5,180,293,36,6,0,0.3833721
1,30,120,105,1,2655,1,2,2,6,0,294,71,6,1,0.3834578
1,30,120,105,1,12599,2,3,2,6,0,295,759,6,1,0.3166152
1,30,120,105,1,7399,2,1,2,5,180,296,202,5,1,0.316712
1,30,120,105,1,6199,2,1,2,6,0,297,163,6,1,0.3000715
1,30,120,105,1,14299,2,1,2,6,0,298,811,6,1,0.3001278
1,30,120,105,1,9199,2,2,2,5,180,299,662,5,1,0.3834535
1,30,120,105,1,1099,2,3,2,6,0,300,27,6,1,0.2834512
1,30,120,105,1,2299,2,1,1,6,0,301,61,5,0,0.3168006
1,30,120,105,1,13155,1,2,1,6,0,302,353,6,1,0.4001236
1,30,120,105,1,2099,2,3,1,6,0,303,477,6,1,0.2834671
1,30,120,105,1,2955,1,1,1,5,180,304,508,5,1,0.4500128
1,30,120,105,1,10455,1,1,1,5,180,305,268,5,1,0.3167017
1,30,120,105,1,6599,2,3,2,5,180,306,174,5,1,0.4000401
1,30,120,105,1,11799,2,3,2,6,0,307,735,6,1,0.2834089
1,30,120,105,1,9199,2,3,2,5,180,308,234,5,1,0.4001137
1,30,120,105,1,4599,2,2,2,5,180,309,134,5,1,0.3833732
1,30,120,105,1,2255,1,1,1,5,180,310,484,6,0,0.2501409
1,30,120,105,1,9199,2,1,1,6,0,311,661,6,1,0.3334786
1,30,120,105,1,13499,2,2,1,6,0,312,365,6,1,0.383382
1,30,120,105,1,599,2,1,1,5,180,313,16,5,1,0.3500533
1,30,120,105,1,3599,2,1,2,5,180,314,106,5,1,0.3333725
1,30,120,105,1,5599,2,2,1,6,0,315,149,6,1,0.3166978
1,30,120,105,1,13499,2,3,1,6,0,316,789,6,1,0.401343
1,30,120,105,1,9255,1,3,2,6,0,317,663,6,1,0.3333698
1,30,120,105,1,12555,1,1,2,6,0,318,331,6,1,0.316693
1,30,120,105,1,16199,2,3,1,5,180,319,840,5,1,0.3500111
1,30,120,105,1,13699,2,1,1,6,0,320,793,6,1,0.3666959
1,30,120,105,1,8399,2,2,1,5,180,321,224,5,1,0.3334273
1,30,120,105,1,8499,2,1,1,5,180,322,652,6,0,0.3001357
1,30,120,105,1,10999,2,3,2,5,180,323,714,5,1,0.3833057
1,30,120,105,1,6599,2,2,2,5,180,324,602,5,1,0.3500431
1,30,120,105,1,8099,2,3,2,5,180,325,642,5,1,0.366729
1,30,120,105,1,2599,2,1,1,6,0,326,493,6,1,0.5000986
1,30,120,105,1,799,2,2,2,5,180,327,446,5,1,0.416768
1,30,120,105,1,14355,1,3,1,6,0,328,813,6,1,0.3334111
1,30,120,105,1,10599,2,2,2,6,0,329,275,6,1,0.3168225
1,30,120,105,1,2699,2,3,1,5,180,330,72,5,1,0.3000416
1,30,120,105,1,10355,1,3,1,5,180,331,264,5,1,0.3501847
1,30,120,105,1,6899,2,1,1,5,180,332,184,5,1,0.3000264
1,30,120,105,1,2899,2,1,2,6,0,333,79,6,1,0.2501422
1,30,120,105,1,3355,1,3,1,6,0,334,525,5,0,0.2676677
1,30,120,105,1,199,2,2,2,5,180,335,2,5,1,0.5166268
1,30,120,105,1,4155,1,2,1,5,180,336,548,6,0,0.2666339
1,30,120,105,1,3699,2,3,2,5,180,337,534,5,1,0.8500256
1,30,120,105,1,4199,2,3,2,6,0,338,123,6,1,0.300076
1,30,120,105,1,11599,2,2,2,5,180,339,302,5,1,0.5499902
1,30,120,105,1,9399,2,2,2,5,180,340,242,5,1,0.350043
1,30,120,105,1,1899,2,3,2,5,180,341,474,5,1,0.383374
1,30,120,105,1,17255,1,2,2,5,180,342,422,5,1,0.3510451
1,30,120,105,1,2955,1,2,1,6,0,343,509,6,1,0.4173198
1,30,120,105,1,5899,2,3,2,5,180,344,582,5,1,0.4167153
1,30,120,105,1,1399,2,3,2,5,180,345,462,5,1,0.3667865
1,30,120,105,1,10799,2,2,1,6,0,346,281,6,1,0.3167116
1,30,120,105,1,12699,2,3,1,5,180,347,336,5,1,0.2834448
1,30,120,105,1,11755,1,3,1,5,180,348,732,5,1,0.3518719
1,30,120,105,1,2255,1,2,1,6,0,349,485,6,1,0.4167709
1,30,120,105,1,16199,2,3,2,5,180,350,414,5,1,0.3333892
1,30,120,105,1,14399,2,1,2,6,0,351,391,6,1,0.3167427
1,30,120,105,1,12099,2,3,2,5,180,352,738,5,1,0.4166639
1,30,120,105,1,9599,2,3,2,5,180,353,246,5,1,0.4666812
1,30,120,105,1,13855,1,1,2,5,180,354,370,5,1,0.4500865
1,30,120,105,1,10699,2,1,2,6,0,355,703,6,1,0.350706
1,30,120,105,1,11755,1,1,1,6,0,356,733,6,1,0.4336285
1,30,120,105,1,10099,2,1,1,5,180,357,256,5,1,0.3168005
1,30,120,105,1,6999,2,3,2,6,0,358,615,6,1,0.2667376
1,30,120,105,1,2399,2,3,2,6,0,359,63,6,1,0.2833537
1,30,120,105,1,12155,1,2,2,6,0,360,743,6,1,0.350088
1,30,120,105,1,3599,2,2,1,6,0,361,533,5,0,0.7833145
1,30,120,105,1,9599,2,1,1,6,0,362,673,6,1,0.5010855
1,30,120,105,1,599,2,3,1,6,0,363,441,6,1,0.3333499
1,30,120,105,1,8499,2,1,2,5,180,364,226,5,1,0.4333517
1,30,120,105,1,2655,1,1,2,5,180,365,70,5,1,0.3834222
1,30,120,105,1,13899,2,2,1,5,180,366,800,5,1,0.4500296
1,30,120,105,1,14299,2,3,2,5,180,367,810,5,1,0.4334077
1,30,120,105,1,14199,2,2,1,6,0,368,809,6,1,0.3850394
1,30,120,105,1,6399,2,2,1,6,0,369,173,6,1,0.3667422
1,30,120,105,1,11399,2,3,1,6,0,370,297,6,1,0.2834149
1,30,120,105,1,12299,2,3,2,6,0,371,747,6,1,0.4167428
1,30,120,105,1,6399,2,3,2,6,0,372,171,6,1,0.283469
1,30,120,105,1,3799,2,3,1,6,0,373,537,6,1,0.3666973
1,30,120,105,1,7699,2,1,2,5,180,374,634,5,1,0.3333957
1,30,120,105,1,7599,2,2,1,5,180,375,632,5,1,0.3687439
1,30,120,105,1,6699,2,1,2,5,180,376,178,5,1,0.5334713
1,30,120,105,1,14155,1,1,1,6,0,377,805,6,1,0.2667511
1,30,120,105,1,10899,2,3,2,6,0,378,711,6,1,0.2999816
1,30,120,105,1,5599,2,1,2,5,180,379,574,6,0,0.3670542
1,30,120,105,1,10099,2,2,2,6,0,380,683,6,1,0.3000364
1,30,120,105,1,6299,2,3,1,6,0,381,165,6,1,0.3168066
1,30,120,105,1,3299,2,2,1,5,180,382,524,5,1,0.433495
1,30,120,105,1,2399,2,3,1,6,0,383,489,6,1,0.4000505
1,30,120,105,1,2155,1,3,2,5,180,384,54,5,1,0.4833007
1,30,120,105,1,455,1,3,2,6,0,385,435,6,1,0.3011063
1,30,120,105,1,10899,2,2,2,6,0,386,287,6,1,0.4168056
1,30,120,105,1,12355,1,3,2,5,180,387,750,5,1,0.3500616
1,30,120,105,1,10455,1,1,2,5,180,388,694,5,1,0.3667615
1,30,120,105,1,1255,1,2,2,6,0,389,35,6,1,0.3167157
1,30,120,105,1,2155,1,1,2,6,0,390,55,6,1,0.3333682
1,30,120,105,1,5299,2,3,1,5,180,391,144,5,1,0.383355
1,30,120,105,1,12599,2,3,1,6,0,392,333,6,1,0.333413
1,30,120,105,1,12199,2,3,1,5,180,393,744,5,1,0.383405
1,30,120,105,1,10099,2,3,2,6,0,394,255,6,1,0.3334097
1,30,120,105,1,17255,1,2,1,5,180,395,848,5,1,0.3500494
1,30,120,105,1,15899,2,2,2,6,0,396,839,6,1,0.2999816
1,30,120,105,1,13299,2,2,2,5,180,397,362,5,1,0.4333819
1,30,120,105,1,999,2,3,1,5,180,398,24,5,1,0.3501011
1,30,120,105,1,299,2,3,1,6,0,399,429,6,1,0.3667854
1,30,120,105,1,1099,2,2,2,6,0,400,455,6,1,0.3166643
1,30,120,105,1,12555,1,1,1,6,0,401,757,5,0,0.3001229
1,30,120,105,1,3399,2,2,2,5,180,402,530,5,1,0.4666948
1,30,120,105,1,10455,1,2,2,6,0,403,695,6,1,0.3166864
1,30,120,105,1,7599,2,2,2,5,180,404,206,5,1,0.4166906
1,30,120,105,1,9255,1,2,1,6,0,405,665,6,1,0.4167045
1,30,120,105,1,4799,2,3,2,6,0,406,135,6,1,0.3001319
1,30,120,105,1,14499,2,1,2,5,180,407,394,5,1,0.3333588
1,30,120,105,1,4099,2,3,1,6,0,408,117,6,1,0.3000332
1,30,120,105,1,1799,2,3,1,5,180,409,468,5,1,0.3167029
1,30,120,105,1,5799,2,1,2,5,180,410,154,5,1,0.3667767
1,30,120,105,1,2899,2,2,2,5,180,411,506,5,1,0.4333697
1,30,120,105,1,4099,2,3,2,6,0,412,543,6,1,0.3333953
1,30,120,105,1,999,2,2,1,5,180,413,452,5,1,0.4833163
1,30,120,105,1,8399,2,1,2,6,0,414,223,6,1,0.3167024
1,30,120,105,1,499,2,2,2,5,180,415,14,5,1,0.3333627
1,30,120,105,1,14155,1,3,1,5,180,416,804,5,1,0.3333738
1,30,120,105,1,2955,1,3,1,6,0,417,81,6,1,0.3001369
1,30,120,105,1,1099,2,3,1,6,0,418,453,6,1,0.35003
1,30,120,105,1,15099,2,1,1,5,180,419,400,5,1,0.4334167
1,30,120,105,1,14299,2,3,1,5,180,420,384,5,1,0.3167552
1,30,120,105,1,2599,2,1,2,6,0,421,67,6,1,0.2834752
1,30,120,105,1,16199,2,2,2,5,180,422,842,5,1,0.3334257
1,30,120,105,1,12299,2,1,1,5,180,423,748,5,1,0.316783
1,30,120,105,1,5299,2,2,2,5,180,424,146,5,1,0.3500228
1,30,120,105,1,17355,1,2,2,6,0,425,851,6,1,0.2500315
1,30,120,105,1,10899,2,3,1,6,0,426,285,6,1,0.4167764
1,30,120,105,1,6599,2,3,1,5,180,427,600,5,1,0.4166652
1,30,120,105,1,7699,2,3,2,6,0,428,207,6,1,0.2667715
1,30,120,105,1,4899,2,3,2,5,180,429,138,5,1,0.2834161
1,30,120,105,1,7099,2,3,2,5,180,430,618,6,0,0.2834552
1,30,120,105,1,455,1,2,1,6,0,431,437,6,1,0.3168148
1,30,120,105,1,14499,2,2,1,6,0,432,821,5,0,0.3333658
1,30,120,105,1,4199,2,1,1,5,180,433,124,5,1,0.3833697
1,30,120,105,1,12699,2,2,2,5,180,434,338,5,1,0.4333564
1,30,120,105,1,7299,2,1,1,6,0,435,625,6,1,0.3166558
1,30,120,105,1,2899,2,2,1,5,180,436,80,5,1,0.3667082
1,30,120,105,1,299,2,1,2,5,180,437,430,5,1,0.3844902
1,30,120,105,1,7699,2,3,1,6,0,438,633,6,1,0.2833443
1,30,120,105,1,4099,2,2,2,6,0,439,119,6,1,0.2833862
1,30,120,105,1,11799,2,1,2,5,180,440,310,5,1,0.3333806
1,30,120,105,1,15099,2,3,1,6,0,441,825,6,1,0.3333522
1,30,120,105,1,6899,2,2,2,6,0,442,611,6,1,0.3667834
1,30,120,105,1,1799,2,2,2,5,180,443,470,5,1,0.3333924
1,30,120,105,1,10999,2,1,1,6,0,444,289,6,1,0.4000313
1,30,120,105,1,3355,1,2,1,6,0,445,101,6,1,0.3501248
1,30,120,105,1,9255,1,1,2,5,180,446,238,5,1,0.3500485
1,30,120,105,1,17255,1,3,1,5,180,447,420,5,1,0.4683217
1,30,120,105,1,599,2,2,2,6,0,448,443,6,1,0.2834468
1,30,120,105,1,3099,2,1,1,5,180,449,88,5,1,0.4000926
1,30,120,105,1,1399,2,2,2,5,180,450,38,6,0,0.3000383
1,30,120,105,1,8799,2,1,1,5,180,451,232,5,1,0.5167816
1,30,120,105,1,5599,2,3,2,6,0,452,147,6,1,0.3668
1,30,120,105,1,14055,1,3,1,6,0,453,801,6,1,0.5166828
1,30,120,105,1,999,2,1,2,6,0,454,451,6,1,0.485293
1,30,120,105,1,6299,2,2,2,6,0,455,167,6,1,0.333459
1,30,120,105,1,12599,2,2,2,6,0,456,335,6,1,0.3001438
1,30,120,105,1,11699,2,3,2,6,0,457,303,6,1,0.3501346
1,30,120,105,1,10999,2,3,1,5,180,458,288,5,1,0.3667425
1,30,120,105,1,6099,2,2,1,6,0,459,161,6,1,0.3346266
1,30,120,105,1,2955,1,2,2,6,0,460,83,6,1,0.3842485
1,30,120,105,1,8199,2,2,1,6,0,461,221,6,1,0.3834469
1,30,120,105,1,1255,1,3,1,6,0,462,33,6,1,0.2668389
1,30,120,105,1,3355,1,1,2,5,180,463,526,5,1,0.4167077
1,30,120,105,1,999,2,3,2,5,180,464,450,6,0,0.450133
1,30,120,105,1,1799,2,1,2,6,0,465,43,6,1,0.383471
1,30,120,105,1,13299,2,1,1,6,0,466,361,6,1,0.4834743
1,30,120,105,1,455,1,2,2,6,0,467,11,6,1,0.3500622
1,30,120,105,1,4199,2,1,2,5,180,468,550,5,1,0.316786
1,30,120,105,1,12155,1,2,1,6,0,469,317,6,1,0.4000533
1,30,120,105,1,3799,2,1,2,5,180,470,538,5,1,0.3333184
1,30,120,105,1,6999,2,2,1,6,0,471,617,6,1,0.433425
1,30,120,105,1,10199,2,2,2,6,0,472,263,6,1,0.3001264
1,30,120,105,1,11599,2,1,1,6,0,473,301,5,0,0.3333867
1,30,120,105,1,5699,2,2,2,5,180,474,578,6,0,0.2834169
1,30,120,105,1,3155,1,3,2,5,180,475,90,5,1,0.4334088
1,30,120,105,1,3599,2,3,2,6,0,476,531,6,1,0.4176596
1,30,120,105,1,4299,2,2,1,5,180,477,128,5,1,0.333914
1,30,120,105,1,10855,1,2,2,5,180,478,710,6,0,0.2834286
1,30,120,105,1,4999,2,3,1,6,0,479,141,6,1,0.4001319
1,30,120,105,1,2955,1,3,2,6,0,480,507,6,1,0.3334045
1,30,120,105,1,1399,2,2,1,5,180,481,464,5,1,0.3500996
1,30,120,105,1,15099,2,1,2,5,180,482,826,5,1,0.3348463
1,30,120,105,1,13899,2,1,1,6,0,483,373,6,1,0.2833209
1,30,120,105,1,9699,2,1,1,5,180,484,676,5,1,0.3666532
1,30,120,105,1,3699,2,2,1,5,180,485,536,5,1,0.3674546
1,30,120,105,1,11199,2,1,2,6,0,486,295,6,1,0.3837836
1,30,120,105,1,8699,2,2,1,5,180,487,656,5,1,0.3166601
1,30,120,105,1,10999,2,1,2,6,0,488,715,6,1,0.3833495
1,30,120,105,1,12099,2,3,1,5,180,489,312,5,1,0.4000451
1,30,120,105,1,999,2,1,1,6,0,490,25,6,1,0.3668031
1,30,120,105,1,2255,1,3,1,6,0,491,57,5,0,0.3167903
1,30,120,105,1,599,2,3,2,6,0,492,15,6,1,0.3167126
1,30,120,105,1,10699,2,3,2,5,180,493,702,5,1,0.4500229
1,30,120,105,1,12355,1,2,1,5,180,494,752,5,1,0.5167904
1,30,120,105,1,10855,1,1,2,6,0,495,283,6,1,0.3000587
1,30,120,105,1,12555,1,3,2,5,180,496,330,5,1,0.4001175
1,30,120,105,1,5599,2,3,1,6,0,497,573,6,1,0.284964
1,30,120,105,1,4099,2,2,1,6,0,498,545,6,1,0.3833794
1,30,120,105,1,5699,2,2,1,5,180,499,152,5,1,0.4166858
1,30,120,105,1,9399,2,3,1,5,180,500,240,5,1,0.3667698
1,30,120,105,1,7799,2,2,2,5,180,501,638,5,1,0.4667609
1,30,120,105,1,4155,1,2,2,5,180,502,122,5,1,0.4000489
1,30,120,105,1,6855,1,3,2,5,180,503,606,5,1,0.3500542
1,30,120,105,1,4299,2,1,2,6,0,504,127,6,1,0.3500439
1,30,120,105,1,6355,1,1,2,6,0,505,595,6,1,0.3000259
1,30,120,105,1,9899,2,1,2,6,0,506,679,6,1,0.2999976
1,30,120,105,1,3155,1,3,1,5,180,507,516,5,1,0.3501009
1,30,120,105,1,6199,2,2,2,5,180,508,590,5,1,0.333649
1,30,120,105,1,499,2,1,1,6,0,509,13,6,1,0.4333744
1,30,120,105,1,9199,2,1,2,6,0,510,235,6,1,0.3167713
1,30,120,105,1,7799,2,3,2,5,180,511,210,5,1,0.5166855
1,30,120,105,1,8799,2,2,1,6,0,512,233,6,1,0.4000395
1,30,120,105,1,8199,2,2,2,6,0,513,647,6,1,0.3849256
1,30,120,105,1,899,2,2,1,6,0,514,449,6,1,0.5166347
1,30,120,105,1,15799,2,1,2,6,0,515,835,6,1,0.3505622
1,30,120,105,1,9399,2,1,1,6,0,516,241,6,1,0.3334951
1,30,120,105,1,2799,2,2,1,6,0,517,77,6,1,0.5667781
1,30,120,105,1,1855,1,1,1,5,180,518,472,5,1,0.2666934
1,30,120,105,1,7099,2,1,1,6,0,519,193,6,1,0.3333669
1,30,120,105,1,10455,1,2,1,6,0,520,269,6,1,0.4000598
1,30,120,105,1,6855,1,3,1,5,180,521,180,5,1,0.4166217
1,30,120,105,1,8099,2,2,1,5,180,522,644,5,1,0.4500203
1,30,120,105,1,11099,2,1,2,5,180,523,718,6,0,0.7000337
1,30,120,105,1,14399,2,2,2,5,180,524,818,6,0,0.383377
1,30,120,105,1,5599,2,1,1,5,180,525,148,5,1,0.5333681
1,30,120,105,1,12199,2,1,1,6,0,526,745,6,1,0.5501196
1,30,120,105,1,1199,2,1,1,6,0,527,457,6,1,0.383436
1,30,120,105,1,2799,2,1,2,5,180,528,502,5,1,0.416776
1,30,120,105,1,13055,1,3,1,5,180,529,348,5,1,0.4167026
1,30,120,105,1,4799,2,2,1,6,0,530,137,6,1,0.3177783
1,30,120,105,1,6099,2,1,2,5,180,531,586,5,1,0.4166409
1,30,120,105,1,12155,1,3,1,6,0,532,741,6,1,0.3833793
1,30,120,105,1,6299,2,2,1,6,0,533,593,6,1,0.4668005
1,30,120,105,1,1255,1,2,1,6,0,534,461,6,1,0.3334033
1,30,120,105,1,2899,2,3,2,5,180,535,78,5,1,0.4334669
1,30,120,105,1,6955,1,1,2,6,0,536,187,6,1,0.3833761
1,30,120,105,1,2399,2,2,1,6,0,537,65,6,1,0.5000416
1,30,120,105,1,14055,1,1,2,5,180,538,802,5,1,0.4008713
1,30,120,105,1,12799,2,2,1,6,0,539,341,6,1,0.4000251
1,30,120,105,1,6899,2,1,2,5,180,540,610,5,1,0.3666345
1,30,120,105,1,14155,1,2,1,5,180,541,380,6,0,0.3334869
1,30,120,105,1,14199,2,1,1,5,180,542,808,5,1,0.4166517
1,30,120,105,1,6999,2,1,1,5,180,543,616,5,1,0.4001448
1,30,120,105,1,10199,2,1,2,5,180,544,262,5,1,0.4167076
1,30,120,105,1,8699,2,3,1,5,180,545,228,5,1,0.4167786
1,30,120,105,1,9599,2,2,1,5,180,546,248,5,1,0.366767
1,30,120,105,1,3199,2,1,1,5,180,547,520,5,1,0.4000502
1,30,120,105,1,8099,2,1,1,6,0,548,217,6,1,0.3667305
1,30,120,105,1,17355,1,2,1,6,0,549,425,6,1,0.4500638
1,30,120,105,1,4099,2,1,2,5,180,550,118,5,1,0.4001253
1,30,120,105,1,7799,2,1,2,6,0,551,211,6,1,0.5666541
1,30,120,105,1,14199,2,1,2,5,180,552,382,5,1,0.3834778
1,30,120,105,1,4199,2,3,1,6,0,553,549,6,1,0.517914
1,30,120,105,1,4155,1,1,2,6,0,554,547,6,1,0.4841576
1,30,120,105,1,4599,2,3,2,5,180,555,558,5,1,0.4167597
1,30,120,105,1,8399,2,3,2,5,180,556,222,5,1,0.5012293
1,30,120,105,1,7999,2,3,1,6,0,557,213,6,1,0.3500272
1,30,120,105,1,2155,1,3,1,5,180,558,480,5,1,0.4499854
1,30,120,105,1,14155,1,1,2,6,0,559,379,6,1,0.3333397
1,30,120,105,1,1255,1,3,2,6,0,560,459,6,1,0.2999711
1,30,120,105,1,2255,1,2,2,6,0,561,59,6,1,0.3167958
1,30,120,105,1,6899,2,2,1,6,0,562,185,6,1,0.4168052
1,30,120,105,1,9899,2,1,1,6,0,563,253,6,1,0.3167907
1,30,120,105,1,3155,1,1,1,6,0,564,517,6,1,0.2668044
1,30,120,105,1,1399,2,1,2,6,0,565,463,6,1,0.2852331
1,30,120,105,1,3155,1,2,1,5,180,566,92,5,1,0.3501348
1,30,120,105,1,3299,2,1,2,6,0,567,523,6,1,0.3005748
1,30,120,105,1,15299,2,2,1,5,180,568,404,5,1,0.3667951
1,30,120,105,1,4799,2,2,2,6,0,569,563,6,1,0.3500276
1,30,120,105,1,14199,2,2,2,6,0,570,383,6,1,0.3514323
1,30,120,105,1,4199,2,2,1,6,0,571,125,6,1,0.4834193
1,30,120,105,1,6999,2,3,1,6,0,572,189,6,1,0.3334072
1,30,120,105,1,3899,2,1,1,6,0,573,541,6,1,0.3181331
1,30,120,105,1,14499,2,1,1,5,180,574,820,5,1,0.4166828
1,30,120,105,1,15799,2,3,1,5,180,575,408,5,1,0.4334165
1,30,120,105,1,11399,2,2,2,6,0,576,299,6,1,0.2836368
1,30,120,105,1,5799,2,1,1,5,180,577,580,5,1,0.3667199
1,30,120,105,1,6599,2,2,1,5,180,578,176,5,1,0.4334667
1,30,120,105,1,1799,2,2,1,5,180,579,44,5,1,0.4335046
1,30,120,105,1,6355,1,3,2,5,180,580,594,5,1,0.4500835
1,30,120,105,1,6299,2,3,2,6,0,581,591,6,1,0.3834549
1,30,120,105,1,455,1,1,1,5,180,582,436,5,1,0.5000051
1,30,120,105,1,11755,1,2,1,5,180,583,308,5,1,0.4334558
1,30,120,105,1,11755,1,3,2,5,180,584,306,5,1,0.4166696
1,30,120,105,1,4599,2,2,1,5,180,585,560,5,1,0.3666975
1,30,120,105,1,5899,2,2,1,5,180,586,584,5,1,0.4685761
1,30,120,105,1,11399,2,1,1,5,180,587,724,5,1,0.3501143
1,30,120,105,1,15299,2,3,2,5,180,588,402,5,1,0.4500069
1,30,120,105,1,13855,1,3,1,6,0,589,369,6,1,0.4018897
1,30,120,105,1,2399,2,1,2,5,180,590,490,5,1,0.3666525
1,30,120,105,1,2155,1,1,1,6,0,591,481,6,1,0.4343685
1,30,120,105,1,12499,2,1,1,5,180,592,328,5,1,0.450051
1,30,120,105,1,12999,2,1,2,5,180,593,346,5,1,0.4500456
1,30,120,105,1,16199,2,1,1,6,0,594,841,6,1,0.4833327
1,30,120,105,1,5899,2,3,1,5,180,595,156,5,1,0.3833982
1,30,120,105,1,13155,1,1,1,5,180,596,352,5,1,0.4000906
1,30,120,105,1,6999,2,1,2,5,180,597,190,5,1,0.483416
1,30,120,105,1,5599,2,2,2,6,0,598,575,6,1,0.3501405
1,30,120,105,1,12155,1,1,1,5,180,599,316,5,1,0.4341451
1,30,120,105,1,1099,2,2,1,6,0,600,29,6,1,0.5336501
1,30,120,105,1,12999,2,1,1,5,180,601,772,5,1,0.3666937
1,30,120,105,1,2999,2,3,1,5,180,602,84,5,1,0.3833459
1,30,120,105,1,3099,2,3,1,6,0,603,513,6,1,0.4001205
1,30,120,105,1,4399,2,2,1,6,0,604,557,6,1,0.3687388
1,30,120,105,1,13855,1,2,2,6,0,605,371,5,0,0.3665886
1,30,120,105,1,6099,2,2,2,6,0,606,587,6,1,0.2833811
1,30,120,105,1,15399,2,3,1,6,0,607,405,6,1,0.3166956
1,30,120,105,1,6955,1,3,2,5,180,608,186,5,1,0.6833655
1,30,120,105,1,9199,2,3,1,5,180,609,660,5,1,0.4666185
1,30,120,105,1,9255,1,1,1,5,180,610,664,5,1,0.4666705
1,30,120,105,1,5299,2,1,1,6,0,611,145,6,1,0.3167292
1,30,120,105,1,16199,2,1,2,6,0,612,415,6,1,0.3168017
1,30,120,105,1,5899,2,2,2,5,180,613,158,5,1,0.4167929
1,30,120,105,1,3199,2,1,2,5,180,614,94,6,0,0.3334635
1,30,120,105,1,1855,1,3,1,6,0,615,45,6,1,0.5001303
1,30,120,105,1,3099,2,3,2,6,0,616,87,6,1,0.4167573
1,30,120,105,1,9499,2,2,2,6,0,617,671,6,1,0.316723
1,30,120,105,1,8399,2,2,2,5,180,618,650,5,1,0.3834761
1,30,120,105,1,12999,2,3,1,6,0,619,345,6,1,0.4000261
1,30,120,105,1,10199,2,1,1,5,180,620,688,5,1,0.416775
1,30,120,105,1,13899,2,3,1,5,180,621,372,5,1,0.3833987
1,30,120,105,1,1699,2,1,2,5,180,622,466,5,1,0.4012279
1,30,120,105,1,8699,2,1,2,6,0,623,655,6,1,0.3174431
1,30,120,105,1,12299,2,2,1,6,0,624,749,6,1,0.4500328
1,30,120,105,1,2699,2,2,2,5,180,625,74,5,1,0.3500204
1,30,120,105,1,7199,2,2,2,6,0,626,623,6,1,0.3000089
1,30,120,105,1,2399,2,2,2,6,0,627,491,6,1,0.3333828
1,30,120,105,1,10799,2,2,2,6,0,628,707,6,1,0.3001512
1,30,120,105,1,14699,2,2,1,5,180,629,824,5,1,0.4344349
1,30,120,105,1,7199,2,1,2,5,180,630,622,5,1,0.4339752
1,30,120,105,1,7999,2,2,1,6,0,631,641,6,1,0.3333738
1,30,120,105,1,11399,2,3,2,6,0,632,723,6,1,0.3167741
1,30,120,105,1,12799,2,3,1,6,0,633,765,6,1,0.3501169
1,30,120,105,1,899,2,1,1,5,180,634,448,5,1,0.3332833
1,30,120,105,1,12099,2,2,2,5,180,635,314,5,1,0.4167833
1,30,120,105,1,7799,2,2,1,5,180,636,212,5,1,0.3834629
1,30,120,105,1,12599,2,1,2,5,180,637,334,5,1,0.4000241
1,30,120,105,1,13155,1,3,2,6,0,638,351,6,1,0.3333897
1,30,120,105,1,10799,2,3,2,6,0,639,279,6,1,0.433372
1,30,120,105,1,13199,2,1,1,6,0,640,781,6,1,0.5499734
1,30,120,105,1,6099,2,3,1,6,0,641,585,6,1,0.4666977
1,30,120,105,1,6699,2,2,2,6,0,642,179,6,1,0.366719
1,30,120,105,1,13155,1,3,1,6,0,643,777,6,1,0.4333554
1,30,120,105,1,2299,2,1,2,6,0,644,487,6,1,0.2834832
1,30,120,105,1,7399,2,3,2,6,0,645,627,6,1,0.3667985
1,30,120,105,1,2599,2,2,2,5,180,646,494,5,1,0.3672852
1,30,120,105,1,11199,2,1,1,6,0,647,721,6,1,0.3836205
1,30,120,105,1,16299,2,2,2,6,0,648,419,6,1,0.2667944
1,30,120,105,1,3399,2,1,2,6,0,649,103,6,1,0.2500521
1,30,120,105,1,3399,2,3,1,5,180,650,528,5,1,0.333435
1,30,120,105,1,4299,2,3,2,5,180,651,126,5,1,0.4834417
1,30,120,105,1,6355,1,1,1,6,0,652,169,6,1,0.4334382
1,30,120,105,1,3299,2,1,1,6,0,653,97,6,1,0.3167893
1,30,120,105,1,4599,2,3,1,5,180,654,132,5,1,0.3834662
1,30,120,105,1,9499,2,3,1,6,0,655,669,6,1,0.3999874
1,30,120,105,1,14299,2,2,1,5,180,656,812,5,1,0.5667728
1,30,120,105,1,14155,1,2,2,5,180,657,806,5,1,0.4333592
1,30,120,105,1,3899,2,1,2,6,0,658,115,6,1,0.3500301
1,30,120,105,1,455,1,1,2,5,180,659,10,5,1,0.4834264
1,30,120,105,1,2599,2,3,1,5,180,660,492,5,1,0.4014536
1,30,120,105,1,10799,2,1,2,5,180,661,706,5,1,0.4500336
1,30,120,105,1,10555,1,3,2,5,180,662,270,5,1,0.4834712
1,30,120,105,1,4999,2,3,2,6,0,663,567,6,1,0.383396
1,30,120,105,1,8799,2,1,2,5,180,664,658,5,1,0.4333547
1,30,120,105,1,13299,2,2,1,5,180,665,788,5,1,0.4501318
1,30,120,105,1,9899,2,2,2,5,180,666,254,5,1,0.4501278
1,30,120,105,1,14699,2,1,1,6,0,667,397,5,0,0.4667421
1,30,120,105,1,14355,1,2,2,6,0,668,815,6,1,0.3166989
1,30,120,105,1,3899,2,3,2,5,180,669,114,5,1,0.3666816
1,30,120,105,1,3199,2,3,2,6,0,670,519,6,1,0.4166004
1,30,120,105,1,15799,2,1,1,6,0,671,409,6,1,0.450046
1,30,120,105,1,399,2,2,2,5,180,672,434,5,1,0.4666409
1,30,120,105,1,2099,2,1,1,5,180,673,52,5,1,0.4014724
1,30,120,105,1,16299,2,3,2,6,0,674,843,6,1,0.3666771
1,30,120,105,1,6199,2,1,1,6,0,675,589,6,1,0.4167307
1,30,120,105,1,12799,2,3,2,6,0,676,339,6,1,0.3667849
1,30,120,105,1,13199,2,3,1,5,180,677,780,5,1,0.4834101
1,30,120,105,1,8399,2,3,1,5,180,678,648,5,1,0.4501442
1,30,120,105,1,299,2,2,1,6,0,679,5,6,1,0.3834568
1,30,120,105,1,11799,2,1,1,5,180,680,736,5,1,0.4666917
1,30,120,105,1,9399,2,1,2,6,0,681,667,6,1,0.333416
1,30,120,105,1,7299,2,2,1,5,180,682,200,5,1,0.3500131
1,30,120,105,1,2255,1,3,2,6,0,683,483,6,1,0.3500284
1,30,120,105,1,13299,2,1,2,6,0,684,787,6,1,0.3500394
1,30,120,105,1,15899,2,1,2,5,180,685,838,5,1,0.4000483
1,30,120,105,1,6899,2,3,1,6,0,686,609,6,1,0.3836952
1,30,120,105,1,10599,2,2,1,6,0,687,701,6,1,0.3334196
1,30,120,105,1,13499,2,3,2,6,0,688,363,6,1,0.3000072
1,30,120,105,1,9699,2,2,1,6,0,689,677,6,1,0.4512826
1,30,120,105,1,399,2,3,2,5,180,690,6,5,1,0.416749
1,30,120,105,1,10855,1,3,1,5,180,691,708,5,1,0.3666817
1,30,120,105,1,2299,2,3,2,5,180,692,486,5,1,0.366701
1,30,120,105,1,15899,2,1,1,5,180,693,412,6,0,0.3501334
1,30,120,105,1,5699,2,3,1,5,180,694,576,5,1,0.3666746
1,30,120,105,1,15399,2,1,1,5,180,695,832,5,1,0.400131
1,30,120,105,1,12499,2,2,1,6,0,696,329,6,1,0.3500333
1,30,120,105,1,15099,2,2,2,6,0,697,827,6,1,0.3667776
1,30,120,105,1,10099,2,2,1,6,0,698,257,6,1,0.3667964
1,30,120,105,1,15799,2,2,1,5,180,699,836,5,1,0.3167998
1,30,120,105,1,14155,1,3,2,5,180,700,378,5,1,0.3833631
1,30,120,105,1,3099,2,1,2,5,180,701,514,5,1,0.2833869
1,30,120,105,1,199,2,3,2,5,180,702,426,5,1,0.2509466
1,30,120,105,1,15299,2,3,1,5,180,703,828,5,1,0.2834575
1,30,120,105,1,13299,2,3,2,5,180,704,786,5,1,0.2834752
1,30,120,105,1,11699,2,2,1,6,0,705,305,6,1,0.350131
1,30,120,105,1,12855,1,3,1,5,180,706,768,5,1,0.300028
1,30,120,105,1,5699,2,1,2,6,0,707,151,6,1,0.2667791
1,30,120,105,1,2999,2,2,1,5,180,708,512,5,1,0.3166568
1,30,120,105,1,9499,2,3,2,6,0,709,243,6,1,0.2834637
1,30,120,105,1,2599,2,3,2,5,180,710,66,5,1,0.3333713
1,30,120,105,1,11799,2,2,2,6,0,711,311,6,1,0.3501294
1,30,120,105,1,9899,2,3,1,5,180,712,252,5,1,0.2833629
1,30,120,105,1,13255,1,3,1,6,0,713,357,6,1,0.3000481
1,30,120,105,1,799,2,1,1,6,0,714,445,6,1,0.3001328
1,30,120,105,1,9499,2,1,1,5,180,715,244,5,1,0.3167171
1,30,120,105,1,7199,2,1,1,5,180,716,196,5,1,0.3333966
1,30,120,105,1,799,2,1,2,6,0,717,19,6,1,0.3000237
1,30,120,105,1,6855,1,2,1,5,180,718,608,5,1,0.3000213
1,30,120,105,1,10899,2,1,1,5,180,719,712,5,1,0.2666963
1,30,120,105,1,1899,2,3,1,5,180,720,48,5,1,0.3001077
1,30,120,105,1,7399,2,2,2,6,0,721,203,6,1,0.3170694
1,30,120,105,1,3199,2,2,2,6,0,722,95,6,1,0.3022542
1,30,120,105,1,5899,2,1,2,6,0,723,583,6,1,0.3000404
1,30,120,105,1,11399,2,2,1,6,0,724,725,6,1,0.3834193
1,30,120,105,1,4599,2,1,2,6,0,725,559,6,1,0.2833775
1,30,120,105,1,12999,2,2,1,6,0,726,773,6,1,0.3333631
1,30,120,105,1,13899,2,1,2,6,0,727,799,6,1,0.2666559
1,30,120,105,1,13499,2,2,2,6,0,728,791,6,1,0.2667626
1,30,120,105,1,1199,2,3,2,5,180,729,30,5,1,0.5500138
1,30,120,105,1,11799,2,2,1,6,0,730,737,6,1,0.4667035
1,30,120,105,1,6855,1,1,1,6,0,731,181,6,1,0.3334263
1,30,120,105,1,4399,2,1,2,5,180,732,130,5,1,0.5667917
1,30,120,105,1,13155,1,2,2,6,0,733,779,6,1,0.3501035
1,30,120,105,1,5799,2,3,1,6,0,734,153,5,0,0.316801
1,30,120,105,1,13155,1,1,2,5,180,735,778,5,1,0.4166507
1,30,120,105,1,10899,2,2,1,6,0,736,713,6,1,0.4000123
1,30,120,105,1,2155,1,2,1,5,180,737,56,5,1,0.3334096
1,30,120,105,1,10555,1,1,2,6,0,738,271,6,1,0.3334191
1,30,120,105,1,3299,2,3,2,5,180,739,522,6,0,0.3166376
1,30,120,105,1,2399,2,1,1,5,180,740,64,5,1,0.3666302
1,30,120,105,1,10599,2,3,1,6,0,741,273,6,1,0.3667874
1,30,120,105,1,8199,2,3,1,6,0,742,645,6,1,0.3667334
1,30,120,105,1,1799,2,1,1,6,0,743,469,6,1,0.3167346
1,30,120,105,1,3599,2,2,2,6,0,744,107,6,1,0.3846902
1,30,120,105,1,4599,2,1,1,6,0,745,133,6,1,0.4001324
1,30,120,105,1,13055,1,1,2,6,0,746,775,6,1,0.3006522
1,30,120,105,1,4799,2,3,1,6,0,747,561,6,1,0.3000096
1,30,120,105,1,1855,1,2,2,6,0,748,47,6,1,0.4167251
1,30,120,105,1,10155,1,3,1,5,180,749,684,5,1,0.3668056
1,30,120,105,1,3899,2,3,1,5,180,750,540,5,1,0.3168005
1,30,120,105,1,9255,1,3,1,6,0,751,237,6,1,0.3667731
1,30,120,105,1,11799,2,3,1,6,0,752,309,6,1,0.3334651
1,30,120,105,1,12855,1,3,2,5,180,753,342,5,1,0.3501373
1,30,120,105,1,12699,2,2,1,5,180,754,764,5,1,0.3332992
1,30,120,105,1,11099,2,2,1,6,0,755,293,6,1,0.3332969
1,30,120,105,1,3299,2,3,1,5,180,756,96,5,1,0.3683351
1,30,120,105,1,1699,2,2,1,6,0,757,41,6,1,0.2834054
1,30,120,105,1,12199,2,2,1,5,180,758,320,5,1,0.2833581
1,30,120,105,1,9899,2,2,1,5,180,759,680,5,1,0.3333815
1,30,120,105,1,8199,2,1,2,5,180,760,646,6,0,0.3500345
1,30,120,105,1,7399,2,3,1,6,0,761,201,6,1,0.3334262
1,30,120,105,1,17255,1,1,2,6,0,762,847,6,1,0.3334464
1,30,120,105,1,14699,2,2,2,5,180,763,398,5,1,0.30053
1,30,120,105,1,3799,2,3,2,6,0,764,111,6,1,0.3350834
1,30,120,105,1,12699,2,1,1,6,0,765,337,6,1,0.5000982
1,30,120,105,1,11699,2,1,2,5,180,766,730,5,1,0.300108
1,30,120,105,1,14199,2,3,2,6,0,767,807,6,1,0.283374
1,30,120,105,1,9499,2,1,2,5,180,768,670,5,1,0.4017556
1,30,120,105,1,9255,1,2,2,6,0,769,239,6,1,0.2667833
1,30,120,105,1,12855,1,2,2,5,180,770,770,5,1,0.3334419
1,30,120,105,1,299,2,1,1,5,180,771,4,5,1,0.3668001
1,30,120,105,1,8499,2,3,1,6,0,772,225,6,1,0.3167188
1,30,120,105,1,299,2,3,2,6,0,773,3,6,1,0.2666439
1,30,120,105,1,2699,2,3,2,5,180,774,498,5,1,0.4000654
1,30,120,105,1,13055,1,2,1,5,180,775,776,5,1,0.31664
1,30,120,105,1,9599,2,2,2,5,180,776,674,5,1,0.5666343
1,30,120,105,1,7599,2,1,1,6,0,777,205,5,0,0.2834692
1,30,120,105,1,9399,2,2,1,5,180,778,668,5,1,0.3166348
1,30,120,105,1,6399,2,3,1,6,0,779,597,5,0,0.3167978
1,30,120,105,1,8799,2,2,2,6,0,780,659,6,1,0.350027
1,30,120,105,1,12199,2,1,2,6,0,781,319,6,1,0.3666934
1,30,120,105,1,13699,2,3,2,5,180,782,366,5,1,0.3500604
1,30,120,105,1,4799,2,1,1,5,180,783,136,5,1,0.4833628
1,30,120,105,1,12099,2,1,1,6,0,784,313,6,1,0.4666562
1,30,120,105,1,3599,2,1,1,5,180,785,532,5,1,0.3833738
1,30,120,105,1,6099,2,1,1,5,180,786,160,5,1,0.4500495
1,30,120,105,1,599,2,2,1,6,0,787,17,6,1,0.3833683
1,30,120,105,1,12599,2,2,1,6,0,788,761,6,1,0.3333603
1,30,120,105,1,10855,1,1,1,6,0,789,709,6,1,0.4668044
1,30,120,105,1,13499,2,1,1,5,180,790,364,5,1,0.3500382
1,30,120,105,1,6899,2,3,2,6,0,791,183,6,1,0.3000279
1,30,120,105,1,7099,2,3,1,5,180,792,192,5,1,0.3501341
1,30,120,105,1,1855,1,2,1,6,0,793,473,6,1,0.4666499
1,30,120,105,1,2655,1,2,1,6,0,794,497,6,1,0.3167491
1,30,120,105,1,2999,2,1,2,6,0,795,511,6,1,0.3000344
1,30,120,105,1,7199,2,2,1,6,0,796,197,6,1,0.3833691
1,30,120,105,1,14399,2,1,1,6,0,797,817,6,1,0.3167663
1,30,120,105,1,1099,2,1,2,5,180,798,454,5,1,0.3667618
1,30,120,105,1,10799,2,3,1,6,0,799,705,6,1,0.366785
1,30,120,105,1,1699,2,3,2,6,0,800,39,6,1,0.3166853
1,30,120,105,1,3099,2,2,2,6,0,801,515,6,1,0.2833551
1,30,120,105,1,899,2,2,2,6,0,802,23,6,1,0.283366
1,30,120,105,1,4399,2,2,2,6,0,803,131,6,1,0.2667688
1,30,120,105,1,199,2,1,1,6,0,804,1,6,1,0.3166818
1,30,120,105,1,9399,2,3,2,5,180,805,666,5,1,0.3500095
1,30,120,105,1,2999,2,2,2,5,180,806,86,5,1,0.3833945
1,30,120,105,1,12699,2,1,2,6,0,807,763,6,1,0.3167661
1,30,120,105,1,7999,2,1,1,5,180,808,640,5,1,0.566748
1,30,120,105,1,4999,2,1,2,5,180,809,142,6,0,0.3334424
1,30,120,105,1,6599,2,1,2,6,0,810,175,6,1,0.2667937
1,30,120,105,1,10999,2,2,1,5,180,811,716,5,1,0.3168035
1,30,120,105,1,10899,2,1,2,5,180,812,286,5,1,0.4501363
1,30,120,105,1,13055,1,3,2,5,180,813,774,5,1,0.3499837
1,30,120,105,1,15299,2,1,1,6,0,814,829,6,1,0.3167498
1,30,120,105,1,7399,2,2,1,6,0,815,629,6,1,0.4334262
1,30,120,105,1,16299,2,1,1,5,180,816,844,5,1,0.3668381
1,30,120,105,1,8799,2,3,1,6,0,817,657,6,1,0.3667232
1,30,120,105,1,8099,2,3,1,5,180,818,216,5,1,0.3333832
1,30,120,105,1,399,2,1,1,6,0,819,433,6,1,0.3178709
1,30,120,105,1,899,2,1,2,5,180,820,22,5,1,0.4833826
1,30,120,105,1,2799,2,3,1,6,0,821,501,6,1,0.3333545
1,30,120,105,1,14399,2,2,1,5,180,822,392,5,1,0.3667054
1,30,120,105,1,12299,2,1,2,5,180,823,322,5,1,0.4334572
1,30,120,105,1,10799,2,1,1,5,180,824,280,5,1,0.3667532
1,30,120,105,1,15399,2,3,2,6,0,825,831,6,1,0.3667703
1,30,120,105,1,11599,2,3,2,5,180,826,726,5,1,0.3168017
1,30,120,105,1,12999,2,2,2,6,0,827,347,6,1,0.3000369
1,30,120,105,1,1255,1,1,1,5,180,828,460,5,1,0.3167134
1,30,120,105,1,12599,2,1,1,5,180,829,760,5,1,0.3334158
1,30,120,105,1,2699,2,1,1,6,0,830,73,6,1,0.3333797
1,30,120,105,1,1199,2,1,2,6,0,831,31,6,1,0.3501281
1,30,120,105,1,8499,2,2,1,6,0,832,653,6,1,0.3833434
1,30,120,105,1,9499,2,2,1,6,0,833,245,6,1,0.3168001
1,30,120,105,1,2655,1,3,1,6,0,834,69,6,1,0.3001359
1,30,120,105,1,3799,2,2,2,6,0,835,539,6,1,0.3834063
1,30,120,105,1,12099,2,1,2,6,0,836,739,6,1,0.4834345
1,30,120,105,1,4899,2,1,2,6,0,837,139,6,1,0.4000222
1,30,120,105,1,7599,2,3,1,5,180,838,204,5,1,0.4667746
1,30,120,105,1,15799,2,3,2,5,180,839,834,5,1,0.4000237
1,30,120,105,1,8699,2,1,1,6,0,840,229,6,1,0.3834639
1,30,120,105,1,11199,2,2,1,5,180,841,296,5,1,0.3334181
1,30,120,105,1,10155,1,1,1,6,0,842,685,6,1,0.3334233
1,30,120,105,1,14055,1,3,2,6,0,843,375,6,1,0.2833958
1,30,120,105,1,10599,2,1,2,5,180,844,274,5,1,0.3333934
1,30,120,105,1,17355,1,1,1,5,180,845,424,5,1,0.3009205
1,30,120,105,1,14299,2,2,2,5,180,846,386,5,1,0.3833431
1,30,120,105,1,3799,2,2,1,6,0,847,113,6,1,0.2833176
1,30,120,105,1,1899,2,2,1,5,180,848,476,5,1,0.3001351
1,30,120,105,1,12355,1,1,2,6,0,849,751,6,1,0.2666397
1,30,120,105,1,2099,2,3,2,6,0,850,51,6,1,0.2834618
1,30,120,105,1,10699,2,2,2,5,180,851,278,5,1,0.3500966
2,30,50,42,1,13155,1,3,1,6,0,0,777,5,1,0.8833637
2,30,50,42,1,2655,1,2,2,6,0,1,71,5,1,0.7507328
2,30,50,42,1,9899,2,1,2,6,0,2,679,5,1,0.4667746
2,30,50,42,1,3699,2,2,2,5,180,3,110,6,1,0.5167889
2,30,50,42,1,3099,2,2,1,6,0,4,89,5,1,0.8834276
2,30,50,42,1,1399,2,3,1,5,180,5,36,6,1,0.5500285
2,30,50,42,1,10699,2,3,2,5,180,6,702,6,1,0.4666964
2,30,50,42,1,14399,2,1,2,6,0,7,391,5,1,0.5500339
2,30,50,42,1,12599,2,3,2,6,0,8,759,5,1,0.5333947
2,30,50,42,1,299,2,2,2,6,0,9,431,5,1,0.4166312
2,30,50,42,1,8199,2,3,2,6,0,10,219,5,1,0.4333788
2,30,50,42,1,7299,2,1,1,6,0,11,625,5,1,0.56671
2,30,50,42,1,10855,1,2,2,5,180,12,710,5,0,0.3833686
2,30,50,42,1,2955,1,2,2,6,0,13,83,5,1,0.4501388
2,30,50,42,1,4299,2,3,1,5,180,14,552,6,1,0.4167838
2,30,50,42,1,10699,2,2,1,5,180,15,704,6,1,0.5502659
2,30,50,42,1,1399,2,2,2,5,180,16,38,6,1,0.5666967
2,30,50,42,1,3399,2,3,2,5,180,17,102,6,1,0.366696
2,30,50,42,1,799,2,3,1,5,180,18,444,6,1,0.4000507
2,30,50,42,1,9499,2,1,1,5,180,19,244,6,1,0.3667567
2,30,50,42,1,15899,2,3,1,6,0,20,837,5,1,0.5501528
2,30,50,42,1,13199,2,3,2,5,180,21,354,6,1,0.5333077
2,30,50,42,1,16199,2,2,2,5,180,22,842,6,1,0.450041
2,30,50,42,1,7099,2,2,1,5,180,23,620,6,1,0.3667034
2,30,50,42,1,17255,1,2,1,5,180,24,848,5,0,0.7500292
2,30,50,42,1,7799,2,1,1,6,0,25,637,5,1,0.7334325
2,30,50,42,1,10199,2,1,2,5,180,26,262,6,1,0.5500194
2,30,50,42,1,6099,2,2,1,6,0,27,161,5,1,0.8167418
2,30,50,42,1,4899,2,2,1,5,180,28,140,6,1,0.716776
2,30,50,42,1,7599,2,3,2,5,180,29,630,6,1,0.6166833
2,30,50,42,1,455,1,3,1,6,0,30,9,5,1,0.5667335
2,30,50,42,1,14699,2,2,2,5,180,31,398,6,1,0.9999637
2,30,50,42,1,13155,1,1,1,5,180,32,352,6,1,1.1167214
2,30,50,42,1,9599,2,1,1,6,0,33,673,5,1,1.216702
2,30,50,42,1,10355,1,2,2,5,180,34,266,6,1,0.7666958
2,30,50,42,1,5299,2,2,1,5,180,35,572,6,1,2.666597
2,30,50,42,1,799,2,3,2,5,180,36,18,6,1,0.4502579
2,30,50,42,1,16299,2,2,1,6,0,37,845,5,1,0.5167021
2,30,50,42,1,1699,2,1,2,5,180,38,466,6,1,0.9833851
2,30,50,42,1,1199,2,2,2,5,180,39,458,6,1,0.4500673
2,30,50,42,1,2999,2,2,1,5,180,40,512,6,1,0.4334473
2,30,50,42,1,6699,2,2,1,6,0,41,605,5,1,1.0333887
2,30,50,42,1,11755,1,3,2,5,180,42,306,6,1,1.4166135
2,30,50,42,1,7199,2,1,2,5,180,43,622,6,1,0.4667506
2,30,50,42,1,10199,2,1,1,5,180,44,688,6,1,0.8833291
2,30,50,42,1,3699,2,3,1,5,180,45,108,6,1,0.6001128
2,30,50,42,1,1099,2,3,2,6,0,46,27,5,1,0.6500324
2,30,50,42,1,4399,2,1,1,5,180,47,556,6,1,1.2333546
2,30,50,42,1,299,2,1,2,5,180,48,430,6,1,1.183332
2,30,50,42,1,4599,2,3,2,5,180,49,558,6,1,1.1333741
2,30,50,42,1,455,1,1,2,5,180,50,10,6,1,2.3333505
2,30,50,42,1,9399,2,3,1,5,180,51,240,6,1,0.7166768
2,30,50,42,1,8699,2,1,2,6,0,52,655,5,1,0.5333405
2,30,50,42,1,12099,2,3,1,5,180,53,312,6,1,2.1334161
2,30,50,42,1,2299,2,1,2,6,0,54,487,5,1,4.5168185
2,30,50,42,1,2655,1,2,1,6,0,55,497,5,1,0.5834217
2,30,50,42,1,6999,2,2,2,6,0,56,191,5,1,0.7167669
2,30,50,42,1,7799,2,3,1,5,180,57,636,6,1,1.00003
2,30,50,42,1,5899,2,2,2,5,180,58,158,6,1,1.7833747
2,30,50,42,1,3155,1,2,2,5,180,59,518,6,1,2.3499937
2,30,50,42,1,11799,2,1,1,5,180,60,736,6,1,0.3667613
2,30,50,42,1,2655,1,1,2,5,180,61,70,6,1,0.6334053
2,30,50,42,1,11599,2,3,1,5,180,62,300,6,1,0.6000297
2,30,50,42,1,4999,2,3,2,6,0,63,567,5,1,0.5334101
2,30,50,42,1,2699,2,3,2,5,180,64,498,6,1,0.5833056
2,30,50,42,1,6955,1,3,2,5,180,65,186,6,1,1.5833876
2,30,50,42,1,15899,2,1,2,5,180,66,838,6,1,0.3834573
2,30,50,42,1,10999,2,1,1,6,0,67,289,5,1,0.5333619
2,30,50,42,1,14699,2,1,1,6,0,68,397,5,1,0.9999981
2,30,50,42,1,2099,2,1,1,5,180,69,52,6,1,2.866722
2,30,50,42,1,3599,2,1,2,5,180,70,106,6,1,0.5667797
2,30,50,42,1,12855,1,2,2,5,180,71,770,6,1,0.3667131
2,30,50,42,1,2399,2,3,2,6,0,72,63,5,1,0.5167735
2,30,50,42,1,12355,1,1,1,6,0,73,325,6,0,0.6833602
2,30,50,42,1,16299,2,3,1,6,0,74,417,5,1,0.7334613
2,30,50,42,1,12599,2,1,2,5,180,75,334,6,1,0.5167943
2,30,50,42,1,1899,2,3,2,5,180,76,474,6,1,0.43336
2,30,50,42,1,6599,2,2,2,5,180,77,602,6,1,0.4000599
2,30,50,42,1,7999,2,3,1,6,0,78,213,5,1,0.4667012
2,30,50,42,1,4155,1,3,2,5,180,79,546,6,1,0.6167146
2,30,50,42,1,14499,2,2,2,6,0,80,395,5,1,1.3667827
2,30,50,42,1,1199,2,2,1,5,180,81,32,6,1,0.6334602
2,30,50,42,1,6999,2,1,1,5,180,82,616,6,1,0.516715
2,30,50,42,1,2155,1,3,2,5,180,83,54,6,1,0.4346353
2,30,50,42,1,5799,2,1,1,5,180,84,580,6,1,0.5000124
2,30,50,42,1,14699,2,2,1,5,180,85,824,6,1,0.5001229
2,30,50,42,1,6399,2,3,2,6,0,86,171,5,1,0.651374
2,30,50,42,1,12299,2,3,2,6,0,87,747,5,1,0.8008221
2,30,50,42,1,10099,2,3,2,6,0,88,255,5,1,0.800126
2,30,50,42,1,11599,2,2,1,5,180,89,728,5,0,1.5166225
2,30,50,42,1,3155,1,1,1,6,0,90,517,5,1,0.3667643
2,30,50,42,1,11399,2,1,1,5,180,91,724,6,1,0.5834179
2,30,50,42,1,6355,1,3,1,5,180,92,168,6,1,1.7667492
2,30,50,42,1,13055,1,1,1,6,0,93,349,5,1,0.6500922
2,30,50,42,1,499,2,2,2,5,180,94,14,6,1,1.5334092
2,30,50,42,1,6099,2,1,2,5,180,95,586,6,1,1.4333414
2,30,50,42,1,15099,2,2,1,6,0,96,401,5,1,0.4834096
2,30,50,42,1,12199,2,2,2,5,180,97,746,6,1,1.4832958
2,30,50,42,1,12555,1,1,1,6,0,98,757,5,1,0.7000563
2,30,50,42,1,12155,1,1,1,5,180,99,316,6,1,0.7667807
2,30,50,42,1,7999,2,3,2,6,0,100,639,5,1,0.9167668
2,30,50,42,1,1799,2,1,2,6,0,101,43,5,1,0.6666186
2,30,50,42,1,4199,2,2,2,6,0,102,551,5,1,1.6333714
2,30,50,42,1,13855,1,3,2,6,0,103,795,5,1,0.4334179
2,30,50,42,1,299,2,2,1,6,0,104,5,5,1,1.3500786
2,30,50,42,1,6399,2,3,1,6,0,105,597,5,1,1.0166276
2,30,50,42,1,13299,2,1,2,6,0,106,787,5,1,0.3834007
2,30,50,42,1,399,2,3,1,5,180,107,432,6,1,0.5334457
2,30,50,42,1,17355,1,3,1,6,0,108,849,5,1,0.5833913
2,30,50,42,1,1899,2,1,2,6,0,109,475,5,1,0.983383
2,30,50,42,1,6955,1,3,1,5,180,110,612,6,1,0.4667942
2,30,50,42,1,10799,2,3,1,6,0,111,705,6,0,0.6833547
2,30,50,42,1,11755,1,1,2,6,0,112,307,5,1,0.4667044
2,30,50,42,1,2255,1,2,2,6,0,113,59,5,1,0.7167859
2,30,50,42,1,13899,2,3,1,5,180,114,372,6,1,0.6333637
2,30,50,42,1,7399,2,2,2,6,0,115,203,5,1,1.0333526
2,30,50,42,1,899,2,2,2,6,0,116,23,5,1,0.5833498
2,30,50,42,1,10155,1,2,2,5,180,117,686,6,1,0.8834187
2,30,50,42,1,12855,1,3,2,5,180,118,342,5,0,0.5834325
2,30,50,42,1,14055,1,3,2,6,0,119,375,5,1,0.5000156
2,30,50,42,1,6299,2,2,1,6,0,120,593,5,1,0.466778
2,30,50,42,1,3299,2,3,1,5,180,121,96,6,1,0.5346613
2,30,50,42,1,12599,2,1,1,5,180,122,760,6,1,1.9667643
2,30,50,42,1,2299,2,3,1,5,180,123,60,6,1,0.3834134
2,30,50,42,1,4599,2,2,1,5,180,124,560,6,1,0.500017
2,30,50,42,1,3899,2,3,2,5,180,125,114,6,1,0.6501064
2,30,50,42,1,14299,2,1,2,6,0,126,811,5,1,1.3000043
2,30,50,42,1,14199,2,3,2,6,0,127,807,5,1,0.5833783
2,30,50,42,1,3599,2,3,1,6,0,128,105,5,1,0.6834038
2,30,50,42,1,799,2,2,1,5,180,129,20,6,1,0.5834064
2,30,50,42,1,7099,2,3,1,5,180,130,192,6,1,0.85003
2,30,50,42,1,599,2,2,2,6,0,131,443,5,1,0.6833402
2,30,50,42,1,1799,2,2,1,5,180,132,44,6,1,1.066742
2,30,50,42,1,2955,1,3,2,6,0,133,507,5,1,0.5667836
2,30,50,42,1,6399,2,1,1,5,180,134,172,6,1,1.0834138
2,30,50,42,1,6099,2,2,2,6,0,135,587,5,1,0.4667236
2,30,50,42,1,15399,2,2,1,6,0,136,833,5,1,0.8000519
2,30,50,42,1,14055,1,1,1,5,180,137,376,6,1,0.500046
2,30,50,42,1,8099,2,1,2,6,0,138,643,5,1,0.5167812
2,30,50,42,1,1899,2,2,1,5,180,139,476,6,1,0.9999892
2,30,50,42,1,11099,2,2,2,6,0,140,719,5,1,0.6001294
2,30,50,42,1,12499,2,3,2,6,0,141,327,5,1,0.6671669
2,30,50,42,1,4199,2,1,1,5,180,142,124,6,1,0.5333896
2,30,50,42,1,1699,2,3,1,6,0,143,465,5,1,0.9167929
2,30,50,42,1,5899,2,1,2,6,0,144,583,5,1,1.0666174
2,30,50,42,1,7699,2,2,1,6,0,145,209,5,1,0.6667666
2,30,50,42,1,6199,2,3,2,5,180,146,162,6,1,0.5667738
2,30,50,42,1,2799,2,2,1,6,0,147,77,5,1,0.5166925
2,30,50,42,1,4899,2,1,2,6,0,148,139,5,1,0.4834677
2,30,50,42,1,3799,2,2,2,6,0,149,539,5,1,0.7334135
2,30,50,42,1,2099,2,3,1,6,0,150,477,5,1,0.4334171
2,30,50,42,1,11799,2,3,1,6,0,151,309,5,1,0.3834216
2,30,50,42,1,3399,2,2,1,5,180,152,104,6,1,0.4333916
2,30,50,42,1,7599,2,1,1,6,0,153,205,5,1,0.4839171
2,30,50,42,1,199,2,1,1,6,0,154,1,5,1,0.5667609
2,30,50,42,1,4599,2,2,2,5,180,155,134,6,1,0.6667743
2,30,50,42,1,12199,2,2,1,5,180,156,320,6,1,0.5833515
2,30,50,42,1,999,2,2,2,5,180,157,26,6,1,0.6183956
2,30,50,42,1,1899,2,3,1,5,180,158,48,6,1,0.5166587
2,30,50,42,1,1199,2,3,1,5,180,159,456,6,1,0.5515899
2,30,50,42,1,13699,2,3,1,5,180,160,792,6,1,0.5667833
2,30,50,42,1,11799,2,3,2,6,0,161,735,5,1,0.5500296
2,30,50,42,1,299,2,1,1,5,180,162,4,6,1,0.5687716
2,30,50,42,1,3099,2,1,2,5,180,163,514,6,1,0.6833593
2,30,50,42,1,1099,2,2,1,6,0,164,29,5,1,0.7334312
2,30,50,42,1,5599,2,1,2,5,180,165,574,6,1,1.0166891
2,30,50,42,1,12555,1,3,1,5,180,166,756,6,1,0.333305
2,30,50,42,1,2955,1,1,2,5,180,167,82,6,1,0.3500438
2,30,50,42,1,10899,2,2,1,6,0,168,713,6,0,0.3667479
2,30,50,42,1,2699,2,3,1,5,180,169,72,6,1,0.4832782
2,30,50,42,1,13199,2,2,1,5,180,170,356,6,1,0.9501212
2,30,50,42,1,14355,1,2,2,6,0,171,815,5,1,0.9502862
2,30,50,42,1,9599,2,3,2,5,180,172,246,5,0,0.8499868
2,30,50,42,1,4155,1,1,2,6,0,173,547,5,1,0.3500531
2,30,50,42,1,7999,2,2,1,6,0,174,641,5,1,0.7000235
2,30,50,42,1,9899,2,2,2,5,180,175,254,5,0,0.4667146
2,30,50,42,1,13255,1,1,1,5,180,176,784,6,1,0.5001308
2,30,50,42,1,12355,1,2,1,5,180,177,752,6,1,0.3501327
2,30,50,42,1,4799,2,3,1,6,0,178,561,6,0,0.3333782
2,30,50,42,1,13299,2,1,1,6,0,179,361,5,1,0.5667398
2,30,50,42,1,14399,2,2,2,5,180,180,818,6,1,0.6334666
2,30,50,42,1,7999,2,2,2,6,0,181,215,5,1,0.7333951
2,30,50,42,1,2599,2,2,1,5,180,182,68,6,1,0.7666424
2,30,50,42,1,2255,1,1,2,5,180,183,58,6,1,1.4667596
2,30,50,42,1,8699,2,2,1,5,180,184,656,6,1,0.6167683
2,30,50,42,1,17255,1,1,2,6,0,185,847,5,1,0.5500452
2,30,50,42,1,12499,2,3,1,6,0,186,753,5,1,0.7001315
2,30,50,42,1,2999,2,1,1,6,0,187,85,5,1,0.6833976
2,30,50,42,1,9199,2,3,2,5,180,188,234,6,1,0.7166704
2,30,50,42,1,10855,1,1,1,6,0,189,709,5,1,0.9500968
2,30,50,42,1,14155,1,2,2,5,180,190,806,6,1,0.7999966
2,30,50,42,1,12799,2,1,1,5,180,191,340,5,0,2.1167286
2,30,50,42,1,2599,2,3,1,5,180,192,492,6,1,0.5000217
2,30,50,42,1,399,2,2,1,5,180,193,8,6,1,0.4667658
2,30,50,42,1,11099,2,3,1,6,0,194,717,5,1,0.5500147
2,30,50,42,1,13255,1,2,2,6,0,195,359,5,1,0.8000413
2,30,50,42,1,5699,2,1,1,6,0,196,577,5,1,0.5000113
2,30,50,42,1,11099,2,2,1,6,0,197,293,5,1,0.333365
2,30,50,42,1,10599,2,3,2,6,0,198,699,5,1,0.4333842
2,30,50,42,1,10099,2,1,1,5,180,199,256,6,1,0.466705
2,30,50,42,1,11399,2,2,1,6,0,200,725,5,1,0.6667873
2,30,50,42,1,10555,1,1,2,6,0,201,271,5,1,0.533295
2,30,50,42,1,13155,1,1,2,5,180,202,778,6,1,0.5500336
2,30,50,42,1,10899,2,1,2,5,180,203,286,6,1,0.5000442
2,30,50,42,1,7799,2,2,2,5,180,204,638,6,1,0.4682802
2,30,50,42,1,899,2,3,1,6,0,205,21,5,1,0.4832893
2,30,50,42,1,12199,2,3,1,5,180,206,744,6,1,0.533467
2,30,50,42,1,8199,2,3,1,6,0,207,645,5,1,0.5000343
2,30,50,42,1,7199,2,3,2,6,0,208,195,5,1,0.5333752
2,30,50,42,1,4199,2,3,2,6,0,209,123,5,1,0.6167852
2,30,50,42,1,12855,1,1,2,6,0,210,343,5,1,0.3833787
2,30,50,42,1,15099,2,3,2,6,0,211,399,5,1,0.5500662
2,30,50,42,1,1699,2,1,1,5,180,212,40,6,1,0.4167067
2,30,50,42,1,8399,2,1,2,6,0,213,223,5,1,0.4000427
2,30,50,42,1,7999,2,1,1,5,180,214,640,6,1,0.8500062
2,30,50,42,1,1399,2,1,2,6,0,215,463,5,1,0.4847678
2,30,50,42,1,4155,1,1,1,6,0,216,121,6,0,0.4501433
2,30,50,42,1,3699,2,1,2,6,0,217,535,5,1,0.5003195
2,30,50,42,1,299,2,3,1,6,0,218,429,5,1,0.4334607
2,30,50,42,1,12499,2,1,1,5,180,219,328,6,1,0.5166897
2,30,50,42,1,1255,1,1,2,5,180,220,34,6,1,0.4500643
2,30,50,42,1,5799,2,3,1,6,0,221,153,5,1,0.6181842
2,30,50,42,1,8499,2,1,2,5,180,222,226,6,1,0.9666348
2,30,50,42,1,6899,2,2,1,6,0,223,185,5,1,0.9167587
2,30,50,42,1,1099,2,1,1,5,180,224,28,6,1,1.3520763
2,30,50,42,1,2655,1,1,1,5,180,225,496,6,1,0.7667521
2,30,50,42,1,2699,2,2,2,5,180,226,74,6,1,0.9834158
2,30,50,42,1,10999,2,3,1,5,180,227,288,6,1,0.8500096
2,30,50,42,1,1855,1,2,2,6,0,228,47,5,1,0.5669314
2,30,50,42,1,5899,2,2,1,5,180,229,584,6,1,0.6167822
2,30,50,42,1,10699,2,1,1,6,0,230,277,5,1,0.5501309
2,30,50,42,1,6599,2,3,2,5,180,231,174,6,1,0.7333811
2,30,50,42,1,5699,2,1,2,6,0,232,151,5,1,0.8179556
2,30,50,42,1,12599,2,2,2,6,0,233,335,5,1,0.6833892
2,30,50,42,1,13155,1,2,2,6,0,234,779,5,1,0.4000379
2,30,50,42,1,499,2,1,1,6,0,235,13,5,1,0.6166208
2,30,50,42,1,13699,2,1,2,6,0,236,367,5,1,0.4501272
2,30,50,42,1,10999,2,2,1,5,180,237,716,6,1,1.5500209
2,30,50,42,1,11399,2,2,2,6,0,238,299,5,1,0.5001347
2,30,50,42,1,6855,1,1,2,6,0,239,607,5,1,0.4333604
2,30,50,42,1,2799,2,3,2,6,0,240,75,5,1,0.5833768
2,30,50,42,1,8799,2,3,2,6,0,241,231,5,1,0.5501025
2,30,50,42,1,15099,2,3,1,6,0,242,825,5,1,0.6168058
2,30,50,42,1,2999,2,2,2,5,180,243,86,6,1,0.7167799
2,30,50,42,1,11699,2,2,2,6,0,244,731,5,1,0.5501082
2,30,50,42,1,8499,2,1,1,5,180,245,652,6,1,0.3833638
2,30,50,42,1,1855,1,3,2,6,0,246,471,5,1,0.5333502
2,30,50,42,1,2799,2,1,1,5,180,247,76,6,1,0.5166977
2,30,50,42,1,3599,2,2,1,6,0,248,533,5,1,0.5833756
2,30,50,42,1,2099,2,3,2,6,0,249,51,5,1,0.566809
2,30,50,42,1,3155,1,2,1,5,180,250,92,6,1,0.5834039
2,30,50,42,1,6299,2,3,2,6,0,251,591,5,1,0.384285
2,30,50,42,1,9255,1,3,2,6,0,252,663,5,1,0.4500407
2,30,50,42,1,2099,2,1,2,5,180,253,478,6,1,0.5500408
2,30,50,42,1,2899,2,3,1,5,180,254,504,6,1,1.5334453
2,30,50,42,1,13299,2,2,2,5,180,255,362,6,1,2.2833124
2,30,50,42,1,5299,2,1,1,6,0,256,145,5,1,0.7833763
2,30,50,42,1,3199,2,2,2,6,0,257,95,5,1,0.5167577
2,30,50,42,1,2599,2,1,2,6,0,258,67,5,1,0.9000151
2,30,50,42,1,6099,2,3,2,6,0,259,159,5,1,0.4833761
2,30,50,42,1,15099,2,2,2,6,0,260,827,5,1,0.7167304
2,30,50,42,1,17355,1,2,1,6,0,261,425,5,1,0.4667826
2,30,50,42,1,2255,1,3,1,6,0,262,57,5,1,0.3667132
2,30,50,42,1,14155,1,2,1,5,180,263,380,6,1,0.5502237
2,30,50,42,1,1699,2,3,2,6,0,264,39,5,1,0.5527836
2,30,50,42,1,13699,2,1,1,6,0,265,793,5,1,0.4667549
2,30,50,42,1,6355,1,2,2,5,180,266,170,6,1,0.5334107
2,30,50,42,1,6399,2,2,1,6,0,267,173,5,1,1.3182837
2,30,50,42,1,10699,2,3,1,5,180,268,276,6,1,0.5500646
2,30,50,42,1,5799,2,2,2,6,0,269,155,5,1,0.4500299
2,30,50,42,1,11699,2,1,2,5,180,270,730,6,1,0.9500123
2,30,50,42,1,7199,2,2,2,6,0,271,623,5,1,0.4667132
2,30,50,42,1,15899,2,3,2,6,0,272,411,5,1,0.4834461
2,30,50,42,1,6955,1,2,1,5,180,273,188,6,1,0.6684915
2,30,50,42,1,399,2,2,2,5,180,274,434,6,1,1.1500901
2,30,50,42,1,10199,2,3,2,6,0,275,687,5,1,1.0500076
2,30,50,42,1,12699,2,1,2,6,0,276,763,5,1,0.4168094
2,30,50,42,1,12155,1,1,2,5,180,277,742,6,1,0.5500441
2,30,50,42,1,6355,1,1,2,6,0,278,595,5,1,0.5000273
2,30,50,42,1,2099,2,2,2,6,0,279,479,5,1,0.6666761
2,30,50,42,1,10899,2,1,1,5,180,280,712,6,1,0.6834073
2,30,50,42,1,7399,2,3,1,6,0,281,201,5,1,0.5516879
2,30,50,42,1,8099,2,2,2,5,180,282,218,6,1,0.5334326
2,30,50,42,1,4999,2,1,1,5,180,283,568,6,1,0.6334116
2,30,50,42,1,599,2,2,1,6,0,284,17,5,1,0.4511762
2,30,50,42,1,11599,2,1,2,6,0,285,727,5,1,0.5000842
2,30,50,42,1,5899,2,3,2,5,180,286,582,6,1,0.6666934
2,30,50,42,1,3699,2,1,1,6,0,287,109,5,1,0.6018907
2,30,50,42,1,799,2,1,1,6,0,288,445,5,1,0.617945
2,30,50,42,1,399,2,1,1,6,0,289,433,5,1,0.56676
2,30,50,42,1,8799,2,3,1,6,0,290,657,5,1,0.650022
2,30,50,42,1,15799,2,2,2,5,180,291,410,6,1,0.7667627
2,30,50,42,1,6699,2,2,2,6,0,292,179,5,1,2.0833854
2,30,50,42,1,6299,2,2,2,6,0,293,167,5,1,0.40004
2,30,50,42,1,7599,2,2,1,5,180,294,632,6,1,0.4666457
2,30,50,42,1,899,2,1,2,5,180,295,22,6,1,0.7833647
2,30,50,42,1,8499,2,2,2,6,0,296,227,5,1,0.5167124
2,30,50,42,1,7699,2,3,2,6,0,297,207,5,1,0.7166447
2,30,50,42,1,2299,2,3,2,5,180,298,486,6,1,0.817898
2,30,50,42,1,455,1,2,2,6,0,299,11,5,1,0.5000568
2,30,50,42,1,13855,1,2,2,6,0,300,371,5,1,0.4667078
2,30,50,42,1,6199,2,1,1,6,0,301,589,5,1,1.8001142
2,30,50,42,1,2999,2,3,1,5,180,302,84,6,1,0.5501053
2,30,50,42,1,7599,2,2,2,5,180,303,206,6,1,0.6500152
2,30,50,42,1,11099,2,1,1,5,180,304,292,6,1,0.8500275
2,30,50,42,1,6955,1,1,1,6,0,305,613,5,1,0.6503339
2,30,50,42,1,13899,2,1,2,6,0,306,799,5,1,0.4833605
2,30,50,42,1,10555,1,3,2,5,180,307,270,6,1,0.5686781
2,30,50,42,1,3355,1,2,1,6,0,308,101,5,1,0.6833516
2,30,50,42,1,6999,2,3,1,6,0,309,189,5,1,0.6167929
2,30,50,42,1,15299,2,3,2,5,180,310,402,6,1,0.7999777
2,30,50,42,1,10355,1,1,1,6,0,311,265,5,1,1.1833888
2,30,50,42,1,14199,2,3,1,6,0,312,381,5,1,1.3333407
2,30,50,42,1,12555,1,3,2,5,180,313,330,6,1,0.7501112
2,30,50,42,1,15399,2,1,2,5,180,314,406,5,0,0.7334642
2,30,50,42,1,12099,2,1,2,6,0,315,739,5,1,0.4012464
2,30,50,42,1,3199,2,1,2,5,180,316,94,6,1,0.5500379
2,30,50,42,1,1199,2,3,2,5,180,317,30,6,1,1.0501137
2,30,50,42,1,10155,1,3,2,5,180,318,258,6,1,0.6500218
2,30,50,42,1,8699,2,3,2,5,180,319,654,6,1,0.5855453
2,30,50,42,1,6855,1,2,2,5,180,320,182,6,1,0.5166991
2,30,50,42,1,4999,2,2,1,6,0,321,569,5,1,0.552645
2,30,50,42,1,15799,2,3,2,5,180,322,834,6,1,1.7333827
2,30,50,42,1,599,2,1,1,5,180,323,16,6,1,0.5667754
2,30,50,42,1,11755,1,1,1,6,0,324,733,5,1,0.5500353
2,30,50,42,1,10099,2,2,2,6,0,325,683,5,1,0.5000435
2,30,50,42,1,5599,2,1,1,5,180,326,148,6,1,0.5833552
2,30,50,42,1,9499,2,3,1,6,0,327,669,5,1,0.8834255
2,30,50,42,1,12299,2,1,2,5,180,328,322,6,1,0.6333812
2,30,50,42,1,16299,2,2,2,6,0,329,419,5,1,0.5167183
2,30,50,42,1,14699,2,3,2,5,180,330,822,6,1,0.5833704
2,30,50,42,1,11399,2,3,1,6,0,331,297,5,1,0.5334416
2,30,50,42,1,199,2,3,1,5,180,332,0,6,1,0.6000911
2,30,50,42,1,6399,2,2,2,6,0,333,599,5,1,0.5666902
2,30,50,42,1,10599,2,1,1,5,180,334,700,6,1,0.6001711
2,30,50,42,1,999,2,3,2,5,180,335,450,6,1,1.4167763
2,30,50,42,1,1799,2,3,1,5,180,336,468,6,1,0.5334475
2,30,50,42,1,2255,1,1,1,5,180,337,484,6,1,0.4016566
2,30,50,42,1,6099,2,1,1,5,180,338,160,6,1,0.9334655
2,30,50,42,1,10455,1,2,2,6,0,339,695,5,1,0.6504284
2,30,50,42,1,4199,2,3,1,6,0,340,549,5,1,0.8833757
2,30,50,42,1,7799,2,1,2,6,0,341,211,5,1,1.1000221
2,30,50,42,1,499,2,3,2,5,180,342,438,6,1,0.4667098
2,30,50,42,1,13155,1,2,1,6,0,343,353,5,1,0.8500145
2,30,50,42,1,7399,2,1,2,5,180,344,202,6,1,0.8000388
2,30,50,42,1,9399,2,2,1,5,180,345,668,6,1,0.4833542
2,30,50,42,1,11199,2,1,2,6,0,346,295,5,1,0.4668028
2,30,50,42,1,14499,2,3,1,6,0,347,393,5,1,0.766697
2,30,50,42,1,13499,2,2,2,6,0,348,791,5,1,0.4833884
2,30,50,42,1,6699,2,1,1,5,180,349,604,6,1,0.8167653
2,30,50,42,1,12999,2,3,2,6,0,350,771,5,1,0.4834288
2,30,50,42,1,5299,2,3,1,5,180,351,144,6,1,0.5334099
2,30,50,42,1,10999,2,1,2,6,0,352,715,5,1,0.5833505
2,30,50,42,1,8399,2,2,2,5,180,353,650,6,1,0.4167706
2,30,50,42,1,6899,2,2,2,6,0,354,611,5,1,0.4834119
2,30,50,42,1,14299,2,3,1,5,180,355,384,6,1,0.7667742
2,30,50,42,1,10355,1,3,2,5,180,356,690,6,1,1.1166374
2,30,50,42,1,3799,2,1,1,5,180,357,112,6,1,0.500085
2,30,50,42,1,599,2,1,2,5,180,358,442,6,1,0.5500195
2,30,50,42,1,11755,1,3,1,5,180,359,732,6,1,0.6333539
2,30,50,42,1,15299,2,3,1,5,180,360,828,6,1,0.4680099
2,30,50,42,1,3099,2,3,2,6,0,361,87,5,1,0.6001282
2,30,50,42,1,13699,2,3,2,5,180,362,366,6,1,1.1016012
2,30,50,42,1,199,2,2,1,5,180,363,428,6,1,0.5167927
2,30,50,42,1,13699,2,2,2,5,180,364,794,6,1,0.4833671
2,30,50,42,1,4099,2,3,2,6,0,365,543,5,1,0.7167702
2,30,50,42,1,10599,2,2,2,6,0,366,275,5,1,0.4500459
2,30,50,42,1,3899,2,2,1,5,180,367,116,6,1,0.7167608
2,30,50,42,1,4299,2,2,1,5,180,368,128,6,1,0.4166747
2,30,50,42,1,15799,2,1,2,6,0,369,835,5,1,0.500025
2,30,50,42,1,14399,2,1,1,6,0,370,817,6,0,1.0333592
2,30,50,42,1,17355,1,1,1,5,180,371,424,6,1,0.9168128
2,30,50,42,1,6199,2,2,2,5,180,372,590,6,1,0.7167919
2,30,50,42,1,4099,2,3,1,6,0,373,117,5,1,0.6167129
2,30,50,42,1,6399,2,1,2,5,180,374,598,6,1,0.7333711
2,30,50,42,1,13199,2,2,2,5,180,375,782,6,1,0.966785
2,30,50,42,1,199,2,3,2,5,180,376,426,6,1,0.466782
2,30,50,42,1,13055,1,3,2,5,180,377,774,6,1,0.6167169
2,30,50,42,1,12599,2,3,1,6,0,378,333,6,0,0.3667954
2,30,50,42,1,15299,2,2,1,5,180,379,404,6,1,0.4666616
2,30,50,42,1,9699,2,3,2,6,0,380,675,5,1,0.5005056
2,30,50,42,1,17355,1,2,2,6,0,381,851,5,1,0.8333293
2,30,50,42,1,7299,2,2,1,5,180,382,200,6,1,0.6501319
2,30,50,42,1,6599,2,2,1,5,180,383,176,6,1,1.1501178
2,30,50,42,1,10799,2,1,1,5,180,384,280,6,1,0.7666409
2,30,50,42,1,5699,2,3,2,5,180,385,150,6,1,0.7167583
2,30,50,42,1,6299,2,1,1,5,180,386,592,6,1,0.916783
2,30,50,42,1,12999,2,3,1,6,0,387,345,5,1,1.0833527
2,30,50,42,1,7299,2,3,1,5,180,388,624,6,1,0.8167116
2,30,50,42,1,10099,2,3,1,6,0,389,681,5,1,0.3999965
2,30,50,42,1,2699,2,1,1,6,0,390,73,5,1,0.6167784
2,30,50,42,1,14699,2,1,2,6,0,391,823,5,1,0.4500224
2,30,50,42,1,11599,2,1,1,6,0,392,301,5,1,0.4500343
2,30,50,42,1,6999,2,3,2,6,0,393,615,5,1,0.5334095
2,30,50,42,1,4155,1,2,2,5,180,394,122,6,1,0.5333465
2,30,50,42,1,7699,2,1,2,5,180,395,634,6,1,0.4834129
2,30,50,42,1,12599,2,2,1,6,0,396,761,5,1,0.4833778
2,30,50,42,1,2399,2,3,1,6,0,397,489,5,1,0.4667725
2,30,50,42,1,10999,2,2,2,5,180,398,290,6,1,0.6500076
2,30,50,42,1,11699,2,3,1,6,0,399,729,5,1,0.6333843
2,30,50,42,1,4799,2,1,2,5,180,400,562,6,1,0.4167708
2,30,50,42,1,3155,1,1,2,6,0,401,91,5,1,0.4666973
2,30,50,42,1,10455,1,1,2,5,180,402,694,6,1,1.2999289
2,30,50,42,1,3099,2,2,2,6,0,403,515,5,1,0.4342782
2,30,50,42,1,2299,2,1,1,6,0,404,61,5,1,0.6000321
2,30,50,42,1,3099,2,1,1,5,180,405,88,6,1,0.5333365
2,30,50,42,1,4899,2,3,1,5,180,406,564,6,1,0.7001345
2,30,50,42,1,7699,2,1,1,5,180,407,208,6,1,0.4666259
2,30,50,42,1,14355,1,2,1,6,0,408,389,5,1,0.5334714
2,30,50,42,1,13899,2,2,2,5,180,409,374,6,1,1.1167729
2,30,50,42,1,11199,2,3,2,5,180,410,294,6,1,0.7999362
2,30,50,42,1,8199,2,2,2,6,0,411,647,5,1,0.5167795
2,30,50,42,1,15299,2,1,1,6,0,412,829,5,1,0.6333589
2,30,50,42,1,9255,1,2,1,6,0,413,665,5,1,0.5333606
2,30,50,42,1,2899,2,3,2,5,180,414,78,6,1,0.5666679
2,30,50,42,1,2155,1,2,1,5,180,415,56,6,1,0.6000348
2,30,50,42,1,3299,2,1,2,6,0,416,523,5,1,0.5333888
2,30,50,42,1,5699,2,2,1,5,180,417,152,6,1,0.5834162
2,30,50,42,1,6955,1,2,2,5,180,418,614,6,1,0.883369
2,30,50,42,1,8399,2,1,1,6,0,419,649,6,0,0.633353
2,30,50,42,1,3399,2,3,1,5,180,420,528,5,0,0.7333439
2,30,50,42,1,13499,2,3,2,6,0,421,363,5,1,1.5500999
2,30,50,42,1,13199,2,3,1,5,180,422,780,6,1,0.566664
2,30,50,42,1,2699,2,1,2,6,0,423,499,5,1,0.4334752
2,30,50,42,1,8099,2,1,1,6,0,424,217,5,1,2.1166767
2,30,50,42,1,7099,2,1,1,6,0,425,193,5,1,0.7167175
2,30,50,42,1,10155,1,1,2,6,0,426,259,5,1,0.4166919
2,30,50,42,1,7399,2,3,2,6,0,427,627,5,1,0.4000359
2,30,50,42,1,15799,2,1,1,6,0,428,409,5,1,0.4000623
2,30,50,42,1,9255,1,2,2,6,0,429,239,5,1,0.4834572
2,30,50,42,1,12799,2,2,2,6,0,430,767,5,1,0.4174282
2,30,50,42,1,2599,2,1,1,6,0,431,493,5,1,0.7667965
2,30,50,42,1,1899,2,2,2,5,180,432,50,6,1,0.7167766
2,30,50,42,1,2799,2,2,2,6,0,433,503,5,1,0.3834152
2,30,50,42,1,2399,2,2,1,6,0,434,65,5,1,0.4666455
2,30,50,42,1,14155,1,1,2,6,0,435,379,5,1,0.416763
2,30,50,42,1,7599,2,1,2,6,0,436,631,5,1,0.4333792
2,30,50,42,1,14355,1,1,1,5,180,437,388,6,1,0.6501239
2,30,50,42,1,8399,2,3,1,5,180,438,648,6,1,0.4666869
2,30,50,42,1,4799,2,1,1,5,180,439,136,6,1,0.4167686
2,30,50,42,1,12099,2,2,1,5,180,440,740,6,1,0.3334326
2,30,50,42,1,15899,2,2,1,6,0,441,413,5,1,0.566775
2,30,50,42,1,6699,2,3,1,6,0,442,177,5,1,0.5999974
2,30,50,42,1,11599,2,3,2,5,180,443,726,6,1,1.0836588
2,30,50,42,1,14399,2,2,1,5,180,444,392,6,1,0.6334182
2,30,50,42,1,15799,2,3,1,5,180,445,408,6,1,1.0833615
2,30,50,42,1,3799,2,3,1,6,0,446,537,5,1,0.4833763
2,30,50,42,1,4399,2,1,2,5,180,447,130,6,1,1.4678759
2,30,50,42,1,4999,2,3,1,6,0,448,141,5,1,0.5834488
2,30,50,42,1,10999,2,3,2,5,180,449,714,6,1,1.3000056
2,30,50,42,1,1199,2,1,1,6,0,450,457,5,1,0.9347896
2,30,50,42,1,12299,2,2,1,6,0,451,749,5,1,0.8667581
2,30,50,42,1,599,2,3,1,6,0,452,441,5,1,0.666697
2,30,50,42,1,10855,1,3,1,5,180,453,708,6,1,0.7000217
2,30,50,42,1,15899,2,1,1,5,180,454,412,6,1,0.4169107
2,30,50,42,1,12099,2,1,1,6,0,455,313,5,1,1.1166932
2,30,50,42,1,13255,1,3,2,6,0,456,783,5,1,0.5167974
2,30,50,42,1,10699,2,1,2,6,0,457,703,5,1,0.5167809
2,30,50,42,1,13299,2,3,1,5,180,458,360,6,1,1.3334503
2,30,50,42,1,2399,2,2,2,6,0,459,491,5,1,0.6166814
2,30,50,42,1,10099,2,2,1,6,0,460,257,5,1,0.4833785
2,30,50,42,1,11099,2,3,2,6,0,461,291,5,1,0.4500391
2,30,50,42,1,6999,2,2,1,6,0,462,617,5,1,0.5667073
2,30,50,42,1,8399,2,3,2,5,180,463,222,6,1,0.7019361
2,30,50,42,1,13699,2,2,1,5,180,464,368,6,1,0.7352051
2,30,50,42,1,6699,2,1,2,5,180,465,178,6,1,0.6500309
2,30,50,42,1,8799,2,2,1,6,0,466,233,5,1,0.7031723
2,30,50,42,1,9399,2,1,2,6,0,467,667,5,1,0.5000536
2,30,50,42,1,13055,1,3,1,5,180,468,348,6,1,0.4666617
2,30,50,42,1,2155,1,1,1,6,0,469,481,5,1,0.9333692
2,30,50,42,1,9599,2,1,2,6,0,470,247,5,1,0.6167641
2,30,50,42,1,5299,2,2,2,5,180,471,146,6,1,0.7500977
2,30,50,42,1,13199,2,1,1,6,0,472,781,5,1,0.6834428
2,30,50,42,1,9399,2,3,2,5,180,473,666,6,1,0.9834245
2,30,50,42,1,16299,2,3,2,6,0,474,843,5,1,1.5333607
2,30,50,42,1,1855,1,1,1,5,180,475,472,6,1,1.0500066
2,30,50,42,1,399,2,3,2,5,180,476,6,6,1,0.8673336
2,30,50,42,1,11755,1,2,1,5,180,477,308,6,1,0.5500433
2,30,50,42,1,4099,2,2,1,6,0,478,545,5,1,0.6334084
2,30,50,42,1,9699,2,2,1,6,0,479,677,5,1,0.5667696
2,30,50,42,1,16199,2,2,1,5,180,480,416,6,1,0.9186366
2,30,50,42,1,7299,2,1,2,6,0,481,199,5,1,1.0678687
2,30,50,42,1,2599,2,3,2,5,180,482,66,6,1,0.6838916
2,30,50,42,1,12199,2,1,1,6,0,483,745,5,1,0.8333701
2,30,50,42,1,11599,2,2,2,5,180,484,302,6,1,0.5500354
2,30,50,42,1,4599,2,3,1,5,180,485,132,6,1,0.400025
2,30,50,42,1,13499,2,1,2,5,180,486,790,6,1,0.6185275
2,30,50,42,1,9599,2,3,1,5,180,487,672,6,1,0.4667091
2,30,50,42,1,1255,1,2,2,6,0,488,35,5,1,0.5500349
2,30,50,42,1,1799,2,1,1,6,0,489,469,5,1,0.7833634
2,30,50,42,1,12799,2,3,1,6,0,490,765,5,1,0.3501317
2,30,50,42,1,10899,2,2,2,6,0,491,287,5,1,0.3167832
2,30,50,42,1,4999,2,1,2,5,180,492,142,6,1,0.5512088
2,30,50,42,1,3599,2,1,1,5,180,493,532,6,1,0.4833773
2,30,50,42,1,4899,2,2,2,5,180,494,566,6,1,0.3833652
2,30,50,42,1,4599,2,1,1,6,0,495,133,5,1,0.4501343
2,30,50,42,1,2299,2,2,1,5,180,496,488,6,1,0.5499199
2,30,50,42,1,12099,2,3,2,5,180,497,738,6,1,0.5667067
2,30,50,42,1,4199,2,2,1,6,0,498,125,5,1,0.5347855
2,30,50,42,1,5599,2,3,2,6,0,499,147,5,1,1.1000197
2,30,50,42,1,2155,1,3,1,5,180,500,480,6,1,0.800016
2,30,50,42,1,7799,2,3,2,5,180,501,210,6,1,0.8667287
2,30,50,42,1,12555,1,1,2,6,0,502,331,5,1,0.4000448
2,30,50,42,1,8799,2,1,2,5,180,503,658,5,0,0.9001238
2,30,50,42,1,10799,2,2,2,6,0,504,707,5,1,0.416722
2,30,50,42,1,3899,2,2,2,5,180,505,542,5,0,0.5174137
2,30,50,42,1,1255,1,3,1,6,0,506,33,5,1,0.5666932
2,30,50,42,1,2655,1,3,2,6,0,507,495,5,1,0.5167939
2,30,50,42,1,6355,1,1,1,6,0,508,169,5,1,0.4500288
2,30,50,42,1,4155,1,3,1,5,180,509,120,6,1,0.5333878
2,30,50,42,1,499,2,2,1,5,180,510,440,6,1,0.633354
2,30,50,42,1,799,2,2,2,5,180,511,446,6,1,0.5509166
2,30,50,42,1,16199,2,3,2,5,180,512,414,6,1,0.4500151
2,30,50,42,1,10199,2,2,2,6,0,513,263,5,1,0.5334192
2,30,50,42,1,13055,1,2,2,5,180,514,350,5,0,3.3833395
2,30,50,42,1,3199,2,1,1,5,180,515,520,6,1,0.4345369
2,30,50,42,1,12699,2,3,1,5,180,516,336,6,1,0.3667668
2,30,50,42,1,2955,1,1,1,5,180,517,508,6,1,0.4166774
2,30,50,42,1,2655,1,3,1,6,0,518,69,5,1,0.5000138
2,30,50,42,1,6199,2,3,1,5,180,519,588,6,1,1.6667164
2,30,50,42,1,999,2,1,1,6,0,520,25,6,0,0.8000084
2,30,50,42,1,7099,2,1,2,6,0,521,619,5,1,0.4834185
2,30,50,42,1,15399,2,3,1,6,0,522,405,5,1,0.4004136
2,30,50,42,1,10355,1,3,1,5,180,523,264,6,1,0.4501273
2,30,50,42,1,12999,2,2,2,6,0,524,347,5,1,0.5834309
2,30,50,42,1,9499,2,3,2,6,0,525,243,5,1,0.4833829
2,30,50,42,1,3899,2,3,1,5,180,526,540,6,1,0.6166442
2,30,50,42,1,11199,2,3,1,5,180,527,720,6,1,0.5666805
2,30,50,42,1,1899,2,1,1,6,0,528,49,5,1,0.4834131
2,30,50,42,1,13299,2,2,1,5,180,529,788,6,1,1.4667532
2,30,50,42,1,10855,1,3,2,5,180,530,282,6,1,0.7000257
2,30,50,42,1,899,2,3,2,6,0,531,447,5,1,0.5333537
2,30,50,42,1,4299,2,1,2,6,0,532,127,5,1,0.700114
2,30,50,42,1,12699,2,1,1,6,0,533,337,5,1,0.8500264
2,30,50,42,1,6599,2,1,2,6,0,534,175,5,1,0.3667884
2,30,50,42,1,12499,2,1,2,5,180,535,754,6,1,0.5333662
2,30,50,42,1,3199,2,3,2,6,0,536,519,5,1,0.4833545
2,30,50,42,1,10555,1,2,1,5,180,537,272,6,1,0.5501258
2,30,50,42,1,9499,2,1,2,5,180,538,670,6,1,0.6500444
2,30,50,42,1,3899,2,1,2,6,0,539,115,5,1,0.5499998
2,30,50,42,1,9399,2,1,1,6,0,540,241,5,1,0.950043
2,30,50,42,1,15099,2,1,2,5,180,541,826,6,1,0.8500212
2,30,50,42,1,4399,2,2,1,6,0,542,557,5,1,0.4833759
2,30,50,42,1,4099,2,1,1,5,180,543,544,6,1,1.6666587
2,30,50,42,1,9255,1,1,1,5,180,544,664,6,1,2.0335052
2,30,50,42,1,8499,2,3,2,6,0,545,651,5,1,0.4667825
2,30,50,42,1,199,2,2,2,5,180,546,2,6,1,1.0667553
2,30,50,42,1,8699,2,1,1,6,0,547,229,5,1,0.5667988
2,30,50,42,1,8099,2,3,1,5,180,548,216,6,1,0.6834304
2,30,50,42,1,1399,2,1,1,6,0,549,37,5,1,0.7001133
2,30,50,42,1,10199,2,2,1,6,0,550,689,5,1,0.7667022
2,30,50,42,1,10799,2,1,2,5,180,551,706,6,1,0.6169824
2,30,50,42,1,3155,1,3,1,5,180,552,516,5,0,0.4500227
2,30,50,42,1,4099,2,1,2,5,180,553,118,6,1,0.5001306
2,30,50,42,1,6199,2,1,2,6,0,554,163,5,1,0.5000055
2,30,50,42,1,12355,1,2,2,5,180,555,326,6,1,0.5501057
2,30,50,42,1,12155,1,2,1,6,0,556,317,5,1,0.5334652
2,30,50,42,1,8099,2,2,1,5,180,557,644,6,1,0.816693
2,30,50,42,1,12499,2,2,1,6,0,558,329,5,1,0.50012
2,30,50,42,1,6299,2,3,1,6,0,559,165,5,1,0.5501294
2,30,50,42,1,4155,1,2,1,5,180,560,548,6,1,0.5499897
2,30,50,42,1,14499,2,2,1,6,0,561,821,5,1,0.4667828
2,30,50,42,1,3399,2,1,1,6,0,562,529,5,1,0.4333612
2,30,50,42,1,12155,1,3,1,6,0,563,741,5,1,0.566717
2,30,50,42,1,499,2,1,2,6,0,564,439,5,1,0.617305
2,30,50,42,1,11699,2,3,2,6,0,565,303,5,1,0.3834677
2,30,50,42,1,4399,2,2,2,6,0,566,131,5,1,0.3334552
2,30,50,42,1,16199,2,1,1,6,0,567,841,6,0,0.3500628
2,30,50,42,1,14399,2,3,1,5,180,568,816,6,1,0.633377
2,30,50,42,1,10799,2,2,1,6,0,569,281,5,1,0.4833786
2,30,50,42,1,17255,1,2,2,5,180,570,422,6,1,0.5333875
2,30,50,42,1,3599,2,2,2,6,0,571,107,5,1,0.3667266
2,30,50,42,1,499,2,3,1,5,180,572,12,6,1,0.4501295
2,30,50,42,1,12799,2,1,2,5,180,573,766,6,1,0.3501101
2,30,50,42,1,13199,2,1,2,6,0,574,355,5,1,0.5167945
2,30,50,42,1,9699,2,2,2,6,0,575,251,5,1,0.5833629
2,30,50,42,1,4399,2,3,2,6,0,576,555,5,1,0.4841612
2,30,50,42,1,5299,2,3,2,5,180,577,570,6,1,0.5500389
2,30,50,42,1,11699,2,2,1,6,0,578,305,5,1,0.5000851
2,30,50,42,1,2099,2,2,1,6,0,579,53,5,1,0.7166741
2,30,50,42,1,14399,2,3,2,5,180,580,390,6,1,0.5334113
2,30,50,42,1,5599,2,2,2,6,0,581,575,5,1,0.4167341
2,30,50,42,1,999,2,1,2,6,0,582,451,5,1,0.4508486
2,30,50,42,1,10555,1,1,1,6,0,583,697,5,1,0.5001273
2,30,50,42,1,6899,2,1,1,5,180,584,184,6,1,0.5000245
2,30,50,42,1,14155,1,3,2,5,180,585,378,6,1,0.6167895
2,30,50,42,1,5799,2,2,1,6,0,586,581,5,1,0.483418
2,30,50,42,1,12855,1,1,1,6,0,587,769,5,1,0.6000526
2,30,50,42,1,14155,1,3,1,5,180,588,804,6,1,0.5511574
2,30,50,42,1,11799,2,2,2,6,0,589,311,5,1,0.5166833
2,30,50,42,1,15399,2,2,2,6,0,590,407,5,1,0.4333739
2,30,50,42,1,4899,2,1,1,6,0,591,565,5,1,0.5832929
2,30,50,42,1,5699,2,2,2,5,180,592,578,6,1,0.650125
2,30,50,42,1,2955,1,2,1,6,0,593,509,5,1,0.4000072
2,30,50,42,1,8199,2,2,1,6,0,594,221,5,1,0.4001375
2,30,50,42,1,10899,2,3,2,6,0,595,711,5,1,0.4499639
2,30,50,42,1,7299,2,3,2,5,180,596,198,6,1,0.5000341
2,30,50,42,1,14199,2,2,1,6,0,597,809,5,1,0.550017
2,30,50,42,1,2399,2,1,1,5,180,598,64,6,1,0.5501183
2,30,50,42,1,9699,2,3,1,6,0,599,249,5,1,0.6000229
2,30,50,42,1,6855,1,2,1,5,180,600,608,6,1,0.4667521
2,30,50,42,1,11199,2,2,2,5,180,601,722,6,1,0.5832974
2,30,50,42,1,11799,2,2,1,6,0,602,737,5,1,0.4836074
2,30,50,42,1,10899,2,3,1,6,0,603,285,5,1,0.6000455
2,30,50,42,1,13499,2,3,1,6,0,604,789,5,1,0.5500416
2,30,50,42,1,3299,2,2,2,5,180,605,98,6,1,0.5001231
2,30,50,42,1,10155,1,1,1,6,0,606,685,5,1,0.4166263
2,30,50,42,1,11755,1,2,2,5,180,607,734,6,1,0.5010582
2,30,50,42,1,14299,2,3,2,5,180,608,810,6,1,0.4338099
2,30,50,42,1,17255,1,3,2,5,180,609,846,6,1,0.3834736
2,30,50,42,1,6999,2,1,2,5,180,610,190,6,1,0.6165945
2,30,50,42,1,10855,1,2,1,5,180,611,284,6,1,0.6833817
2,30,50,42,1,5899,2,1,1,6,0,612,157,6,0,0.6833475
2,30,50,42,1,455,1,2,1,6,0,613,437,5,1,0.3667924
2,30,50,42,1,3399,2,2,2,5,180,614,530,6,1,0.5667814
2,30,50,42,1,4899,2,3,2,5,180,615,138,6,1,0.4334956
2,30,50,42,1,9599,2,2,2,5,180,616,674,6,1,0.6667328
2,30,50,42,1,1699,2,2,2,6,0,617,467,5,1,0.550035
2,30,50,42,1,2899,2,2,1,5,180,618,80,6,1,0.5667621
2,30,50,42,1,14355,1,3,2,6,0,619,387,5,1,0.5167019
2,30,50,42,1,3799,2,3,2,6,0,620,111,5,1,0.4833827
2,30,50,42,1,10155,1,2,1,5,180,621,260,6,1,1.3333965
2,30,50,42,1,11799,2,1,2,5,180,622,310,6,1,0.5168912
2,30,50,42,1,14199,2,1,1,5,180,623,808,6,1,0.4334034
2,30,50,42,1,10799,2,3,2,6,0,624,279,5,1,0.5167655
2,30,50,42,1,7299,2,2,2,5,180,625,626,6,1,0.4834076
2,30,50,42,1,3099,2,3,1,6,0,626,513,5,1,0.5334325
2,30,50,42,1,2799,2,3,1,6,0,627,501,5,1,0.4334131
2,30,50,42,1,3155,1,3,2,5,180,628,90,6,1,0.4852925
2,30,50,42,1,3699,2,3,2,5,180,629,534,6,1,0.8000265
2,30,50,42,1,6299,2,1,2,5,180,630,166,6,1,0.4334145
2,30,50,42,1,12555,1,2,2,5,180,631,758,6,1,0.4667714
2,30,50,42,1,8199,2,1,2,5,180,632,646,6,1,0.3000539
2,30,50,42,1,12355,1,3,2,5,180,633,750,6,1,0.3667871
2,30,50,42,1,9599,2,2,1,5,180,634,248,6,1,0.4833846
2,30,50,42,1,12299,2,2,2,6,0,635,323,5,1,0.500041
2,30,50,42,1,7099,2,3,2,5,180,636,618,6,1,0.4833838
2,30,50,42,1,14199,2,1,2,5,180,637,382,6,1,0.3834962
2,30,50,42,1,6855,1,1,1,6,0,638,181,6,0,0.2834447
2,30,50,42,1,8399,2,2,1,5,180,639,224,6,1,0.516714
2,30,50,42,1,14055,1,3,1,6,0,640,801,6,0,0.3834301
2,30,50,42,1,10455,1,2,1,6,0,641,269,5,1,0.4833835
2,30,50,42,1,10599,2,2,1,6,0,642,701,5,1,0.6833703
2,30,50,42,1,3355,1,3,2,6,0,643,99,5,1,0.4167182
2,30,50,42,1,16299,2,1,2,5,180,644,418,6,1,0.7167961
2,30,50,42,1,14055,1,2,1,6,0,645,377,5,1,0.6166208
2,30,50,42,1,7399,2,2,1,6,0,646,629,5,1,0.516778
2,30,50,42,1,13055,1,1,2,6,0,647,775,5,1,0.5000327
2,30,50,42,1,12499,2,2,2,6,0,648,755,5,1,0.4012861
2,30,50,42,1,4999,2,2,2,6,0,649,143,5,1,0.3833256
2,30,50,42,1,9499,2,2,2,6,0,650,671,5,1,0.5001327
2,30,50,42,1,799,2,1,2,6,0,651,19,5,1,0.7167809
2,30,50,42,1,11399,2,1,2,5,180,652,298,6,1,0.5500538
2,30,50,42,1,13299,2,3,2,5,180,653,786,6,1,0.8000301
2,30,50,42,1,8799,2,2,2,6,0,654,659,5,1,0.5500253
2,30,50,42,1,13155,1,3,2,6,0,655,351,5,1,0.4001181
2,30,50,42,1,12999,2,1,2,5,180,656,346,6,1,0.5833606
2,30,50,42,1,15299,2,2,2,5,180,657,830,6,1,0.5167046
2,30,50,42,1,899,2,1,1,5,180,658,448,6,1,0.6667782
2,30,50,42,1,10699,2,2,2,5,180,659,278,6,1,0.4667041
2,30,50,42,1,12799,2,2,1,6,0,660,341,5,1,0.650019
2,30,50,42,1,1855,1,3,1,6,0,661,45,5,1,0.533391
2,30,50,42,1,4799,2,2,2,6,0,662,563,5,1,0.6671
2,30,50,42,1,14499,2,3,2,6,0,663,819,5,1,0.56678
2,30,50,42,1,14055,1,2,2,6,0,664,803,5,1,0.4167315
2,30,50,42,1,8699,2,3,1,5,180,665,228,6,1,0.8500067
2,30,50,42,1,299,2,3,2,6,0,666,3,5,1,0.7167787
2,30,50,42,1,2255,1,2,1,6,0,667,485,5,1,0.7834174
2,30,50,42,1,4199,2,1,2,5,180,668,550,6,1,0.7667704
2,30,50,42,1,10455,1,3,1,6,0,669,693,5,1,0.4500093
2,30,50,42,1,4799,2,3,2,6,0,670,135,5,1,1.4334538
2,30,50,42,1,1255,1,2,1,6,0,671,461,5,1,0.6667203
2,30,50,42,1,11199,2,2,1,5,180,672,296,6,1,0.4833674
2,30,50,42,1,9699,2,1,1,5,180,673,676,5,0,0.8174098
2,30,50,42,1,10555,1,2,2,5,180,674,698,6,1,0.4834447
2,30,50,42,1,10599,2,1,2,5,180,675,274,6,1,0.5167255
2,30,50,42,1,9199,2,2,2,5,180,676,662,6,1,0.3833928
2,30,50,42,1,4299,2,1,1,6,0,677,553,6,0,0.533467
2,30,50,42,1,3355,1,1,2,5,180,678,526,6,1,0.450137
2,30,50,42,1,2399,2,1,2,5,180,679,490,6,1,0.4832761
2,30,50,42,1,5799,2,1,2,5,180,680,154,6,1,0.3677972
2,30,50,42,1,10199,2,3,1,6,0,681,261,5,1,0.4168969
2,30,50,42,1,14155,1,1,1,6,0,682,805,5,1,0.383369
2,30,50,42,1,1799,2,2,2,5,180,683,470,6,1,0.5167884
2,30,50,42,1,13499,2,1,1,5,180,684,364,6,1,0.6521145
2,30,50,42,1,12555,1,2,1,5,180,685,332,6,1,0.4833944
2,30,50,42,1,7999,2,1,2,5,180,686,214,6,1,0.5667072
2,30,50,42,1,13899,2,3,2,5,180,687,798,6,1,0.3999412
2,30,50,42,1,12999,2,2,1,6,0,688,773,5,1,0.6834007
2,30,50,42,1,13855,1,2,1,6,0,689,797,5,1,0.5000274
2,30,50,42,1,999,2,2,1,5,180,690,452,6,1,1.0834345
2,30,50,42,1,12099,2,2,2,5,180,691,314,6,1,0.7834219
2,30,50,42,1,6899,2,3,2,6,0,692,183,5,1,0.6334369
2,30,50,42,1,5699,2,3,1,5,180,693,576,6,1,0.8166377
2,30,50,42,1,10855,1,1,2,6,0,694,283,5,1,0.7001224
2,30,50,42,1,1855,1,2,1,6,0,695,473,5,1,0.8834652
2,30,50,42,1,10355,1,2,1,5,180,696,692,6,1,0.6000716
2,30,50,42,1,3599,2,3,2,6,0,697,531,5,1,0.5333651
2,30,50,42,1,14055,1,1,2,5,180,698,802,6,1,0.7506339
2,30,50,42,1,6599,2,1,1,6,0,699,601,5,1,0.6001226
2,30,50,42,1,8099,2,3,2,5,180,700,642,6,1,0.6000182
2,30,50,42,1,15399,2,1,1,5,180,701,832,6,1,0.6833764
2,30,50,42,1,4099,2,2,2,6,0,702,119,5,1,0.5833677
2,30,50,42,1,5799,2,3,2,6,0,703,579,5,1,0.5166279
2,30,50,42,1,15799,2,2,1,5,180,704,836,6,1,1.4166629
2,30,50,42,1,14299,2,2,1,5,180,705,812,6,1,0.3167745
2,30,50,42,1,9899,2,2,1,5,180,706,680,6,1,0.4003132
2,30,50,42,1,14699,2,3,1,5,180,707,396,6,1,0.4166185
2,30,50,42,1,1799,2,3,2,5,180,708,42,6,1,0.6001101
2,30,50,42,1,3299,2,2,1,5,180,709,524,6,1,1.4333671
2,30,50,42,1,12299,2,3,1,6,0,710,321,5,1,0.5500433
2,30,50,42,1,12855,1,3,1,5,180,711,768,5,0,0.7333379
2,30,50,42,1,14499,2,1,2,5,180,712,394,6,1,0.6167985
2,30,50,42,1,999,2,3,1,5,180,713,24,6,1,1.6499904
2,30,50,42,1,4599,2,1,2,6,0,714,559,5,1,1.0500248
2,30,50,42,1,1199,2,1,2,6,0,715,31,5,1,1.1500427
2,30,50,42,1,17255,1,1,1,6,0,716,421,5,1,0.6000653
2,30,50,42,1,14299,2,1,1,6,0,717,385,5,1,0.4003724
2,30,50,42,1,12999,2,1,1,5,180,718,772,5,0,0.116723
2,30,50,42,1,10455,1,3,2,6,0,719,267,5,1,0.2499887
2,30,50,42,1,9199,2,1,2,6,0,720,235,5,1,0.4500655
2,30,50,42,1,14355,1,3,1,6,0,721,813,5,1,0.633365
2,30,50,42,1,899,2,2,1,6,0,722,449,5,1,0.4681269
2,30,50,42,1,14355,1,1,2,5,180,723,814,6,1,1.550088
2,30,50,42,1,8499,2,3,1,6,0,724,225,5,1,0.5667589
2,30,50,42,1,7199,2,1,1,5,180,725,196,6,1,1.5333749
2,30,50,42,1,6355,1,3,2,5,180,726,594,5,0,0.466697
2,30,50,42,1,2899,2,1,1,6,0,727,505,5,1,0.5349379
2,30,50,42,1,3199,2,3,1,6,0,728,93,5,1,0.3833737
2,30,50,42,1,12299,2,1,1,5,180,729,748,6,1,0.4334355
2,30,50,42,1,5299,2,1,2,6,0,730,571,5,1,0.5167773
2,30,50,42,1,9199,2,3,1,5,180,731,660,6,1,0.6166877
2,30,50,42,1,12355,1,3,1,5,180,732,324,6,1,0.5167104
2,30,50,42,1,8799,2,1,1,5,180,733,232,6,1,0.5333712
2,30,50,42,1,13255,1,1,2,5,180,734,358,6,1,0.5000453
2,30,50,42,1,399,2,1,2,6,0,735,7,5,1,0.5010217
2,30,50,42,1,14199,2,2,2,6,0,736,383,5,1,0.5000222
2,30,50,42,1,12699,2,2,1,5,180,737,764,6,1,0.4833912
2,30,50,42,1,3799,2,1,2,5,180,738,538,6,1,0.5832833
2,30,50,42,1,12699,2,2,2,5,180,739,338,6,1,2.8500577
2,30,50,42,1,10555,1,3,1,5,180,740,696,5,0,1.6501063
2,30,50,42,1,9399,2,2,2,5,180,741,242,6,1,1.5166201
2,30,50,42,1,1399,2,3,2,5,180,742,462,6,1,1.983325
2,30,50,42,1,15299,2,1,2,6,0,743,403,5,1,0.5501299
2,30,50,42,1,9899,2,3,2,5,180,744,678,6,1,1.1191424
2,30,50,42,1,3399,2,1,2,6,0,745,103,5,1,0.4167817
2,30,50,42,1,4399,2,3,1,6,0,746,129,5,1,0.4834606
2,30,50,42,1,11099,2,1,2,5,180,747,718,6,1,0.5833777
2,30,50,42,1,2255,1,3,2,6,0,748,483,5,1,0.4334632
2,30,50,42,1,599,2,3,2,6,0,749,15,5,1,0.7165944
2,30,50,42,1,7399,2,1,1,5,180,750,628,6,1,1.1000201
2,30,50,42,1,13899,2,2,1,5,180,751,800,6,1,0.5167257
2,30,50,42,1,17255,1,3,1,5,180,752,420,6,1,0.4668223
2,30,50,42,1,3355,1,3,1,6,0,753,525,5,1,0.5834658
2,30,50,42,1,3355,1,2,2,6,0,754,527,5,1,0.4833114
2,30,50,42,1,10455,1,1,1,5,180,755,268,6,1,1.2501178
2,30,50,42,1,14299,2,2,2,5,180,756,386,6,1,2.9339541
2,30,50,42,1,6699,2,3,2,6,0,757,603,5,1,0.6500275
2,30,50,42,1,6599,2,3,1,5,180,758,600,6,1,1.4000003
2,30,50,42,1,2299,2,2,2,5,180,759,62,6,1,1.7500211
2,30,50,42,1,3799,2,2,1,6,0,760,113,5,1,0.8834083
2,30,50,42,1,12155,1,2,2,6,0,761,743,5,1,3.0500433
2,30,50,42,1,6099,2,3,1,6,0,762,585,5,1,1.6334047
2,30,50,42,1,1099,2,3,1,6,0,763,453,5,1,0.3666978
2,30,50,42,1,13255,1,3,1,6,0,764,357,5,1,0.3680906
2,30,50,42,1,3355,1,1,1,5,180,765,100,6,1,0.4000629
2,30,50,42,1,13255,1,2,1,6,0,766,785,5,1,0.6167707
2,30,50,42,1,12199,2,1,2,6,0,767,319,5,1,0.383429
2,30,50,42,1,3899,2,1,1,6,0,768,541,5,1,0.5500952
2,30,50,42,1,9899,2,3,1,5,180,769,252,6,1,0.5340872
2,30,50,42,1,1099,2,1,2,5,180,770,454,6,1,0.3666271
2,30,50,42,1,16199,2,1,2,6,0,771,415,5,1,0.4500564
2,30,50,42,1,9255,1,3,1,6,0,772,237,5,1,0.5000172
2,30,50,42,1,2955,1,3,1,6,0,773,81,5,1,0.4333752
2,30,50,42,1,2999,2,1,2,6,0,774,511,5,1,0.4167984
2,30,50,42,1,6199,2,2,1,5,180,775,164,6,1,0.5001338
2,30,50,42,1,9699,2,1,2,5,180,776,250,5,0,0.4000401
2,30,50,42,1,6899,2,1,2,5,180,777,610,6,1,0.5000469
2,30,50,42,1,5599,2,3,1,6,0,778,573,6,0,0.4333445
2,30,50,42,1,7199,2,3,1,6,0,779,621,5,1,0.5667002
2,30,50,42,1,2599,2,2,2,5,180,780,494,6,1,0.716778
2,30,50,42,1,2899,2,1,2,6,0,781,79,5,1,0.4834652
2,30,50,42,1,5599,2,2,1,6,0,782,149,5,1,0.4667856
2,30,50,42,1,17355,1,3,2,6,0,783,423,5,1,0.4834729
2,30,50,42,1,17355,1,1,2,5,180,784,850,6,1,0.6167057
2,30,50,42,1,10599,2,3,1,6,0,785,273,5,1,0.5000396
2,30,50,42,1,4799,2,2,1,6,0,786,137,5,1,0.3334226
2,30,50,42,1,6855,1,3,1,5,180,787,180,6,1,0.4668143
2,30,50,42,1,7699,2,3,1,6,0,788,633,5,1,0.5500356
2,30,50,42,1,16199,2,3,1,5,180,789,840,6,1,0.5167142
2,30,50,42,1,9199,2,2,1,5,180,790,236,6,1,0.4500155
2,30,50,42,1,2799,2,1,2,5,180,791,502,6,1,0.6167625
2,30,50,42,1,11699,2,1,1,5,180,792,304,6,1,0.4500483
2,30,50,42,1,2999,2,3,2,5,180,793,510,6,1,0.5167619
2,30,50,42,1,2699,2,2,1,5,180,794,500,6,1,0.7167174
2,30,50,42,1,11199,2,1,1,6,0,795,721,5,1,0.6499767
2,30,50,42,1,455,1,1,1,5,180,796,436,6,1,0.5332871
2,30,50,42,1,13899,2,1,1,6,0,797,373,5,1,0.5167606
2,30,50,42,1,9255,1,1,2,5,180,798,238,6,1,0.4667766
2,30,50,42,1,7599,2,3,1,5,180,799,204,6,1,0.6166483
2,30,50,42,1,15099,2,1,1,5,180,800,400,6,1,0.3667571
2,30,50,42,1,6955,1,1,2,6,0,801,187,5,1,0.4344707
2,30,50,42,1,4299,2,3,2,5,180,802,126,6,1,0.4667147
2,30,50,42,1,10099,2,1,2,5,180,803,682,6,1,0.6168056
2,30,50,42,1,12799,2,3,2,6,0,804,339,5,1,0.4833615
2,30,50,42,1,13855,1,1,2,5,180,805,370,6,1,0.4500512
2,30,50,42,1,1855,1,1,2,5,180,806,46,6,1,0.5667894
2,30,50,42,1,12355,1,1,2,6,0,807,751,5,1,0.433364
2,30,50,42,1,13855,1,3,1,6,0,808,369,5,1,0.5000182
2,30,50,42,1,3699,2,2,1,5,180,809,536,6,1,0.4835657
2,30,50,42,1,7199,2,2,1,6,0,810,197,5,1,0.4167481
2,30,50,42,1,12155,1,3,2,6,0,811,315,5,1,0.6334368
2,30,50,42,1,3299,2,1,1,6,0,812,97,5,1,0.4501336
2,30,50,42,1,1099,2,2,2,6,0,813,455,5,1,0.3834636
2,30,50,42,1,12855,1,2,1,5,180,814,344,6,1,0.4181044
2,30,50,42,1,15399,2,3,2,6,0,815,831,5,1,0.4007878
2,30,50,42,1,4299,2,2,2,5,180,816,554,6,1,0.3666914
2,30,50,42,1,2155,1,2,2,5,180,817,482,6,1,0.5834693
2,30,50,42,1,6855,1,3,2,5,180,818,606,6,1,0.7334502
2,30,50,42,1,12199,2,3,2,5,180,819,318,6,1,2.5667284
2,30,50,42,1,3199,2,2,1,6,0,820,521,5,1,0.8333582
2,30,50,42,1,2899,2,2,2,5,180,821,506,6,1,0.5834616
2,30,50,42,1,9499,2,2,1,6,0,822,245,5,1,0.7500371
2,30,50,42,1,1699,2,2,1,6,0,823,41,5,1,0.6167009
2,30,50,42,1,13499,2,2,1,6,0,824,365,5,1,1.0166759
2,30,50,42,1,12699,2,3,2,5,180,825,762,6,1,0.5500262
2,30,50,42,1,14499,2,1,1,5,180,826,820,6,1,0.6506443
2,30,50,42,1,6355,1,2,1,5,180,827,596,6,1,1.8667627
2,30,50,42,1,11399,2,3,2,6,0,828,723,5,1,0.4167768
2,30,50,42,1,15899,2,2,2,6,0,829,839,5,1,0.5500968
2,30,50,42,1,3299,2,3,2,5,180,830,522,6,1,0.6667865
2,30,50,42,1,8499,2,2,1,6,0,831,653,5,1,0.9167021
2,30,50,42,1,9199,2,1,1,6,0,832,661,5,1,0.5666818
2,30,50,42,1,9899,2,1,1,6,0,833,253,5,1,0.5000206
2,30,50,42,1,1399,2,2,1,5,180,834,464,6,1,0.6000213
2,30,50,42,1,6899,2,3,1,6,0,835,609,5,1,0.5001343
2,30,50,42,1,1255,1,3,2,6,0,836,459,5,1,0.4500278
2,30,50,42,1,8199,2,1,1,5,180,837,220,6,1,0.9334661
2,30,50,42,1,2155,1,1,2,6,0,838,55,5,1,0.8847344
2,30,50,42,1,7699,2,2,2,6,0,839,635,5,1,0.4166282
2,30,50,42,1,1255,1,1,1,5,180,840,460,6,1,0.5001076
2,30,50,42,1,13855,1,1,1,5,180,841,796,6,1,0.5001059
2,30,50,42,1,8699,2,2,2,5,180,842,230,6,1,0.800032
2,30,50,42,1,5899,2,3,1,5,180,843,156,6,1,0.5338336
2,30,50,42,1,16299,2,1,1,5,180,844,844,6,1,0.5167503
2,30,50,42,1,10355,1,1,2,6,0,845,691,5,1,0.61666
2,30,50,42,1,10155,1,3,1,5,180,846,684,6,1,0.6167098
2,30,50,42,1,13055,1,2,1,5,180,847,776,6,1,0.5500587
2,30,50,42,1,7799,2,2,1,5,180,848,212,6,1,0.516804
2,30,50,42,1,7099,2,2,2,5,180,849,194,6,1,0.3508544
2,30,50,42,1,199,2,1,2,6,0,850,427,5,1,0.5000659
2,30,50,42,1,455,1,3,2,6,0,851,435,5,1,0.5334625
3,20,77.5,60,1,9599,2,3,2,5,180,0,246,5,1,0.5334369
3,20,77.5,60,1,13499,2,1,2,5,180,1,790,5,1,0.3500264
3,20,77.5,60,1,15099,2,3,2,5,180,2,399,5,1,0.3010453
3,20,77.5,60,1,2899,2,2,2,6,0,3,506,6,1,0.4166802
3,20,77.5,60,1,10855,1,3,1,5,180,4,708,5,1,0.4666704
3,20,77.5,60,1,10699,2,2,2,6,0,5,278,6,1,0.4500972
3,20,77.5,60,1,9255,1,1,1,6,0,6,664,6,1,0.9333627
3,20,77.5,60,1,1855,1,3,2,5,180,7,471,5,1,0.5000583
3,20,77.5,60,1,13155,1,2,1,6,0,8,353,6,1,0.4343769
3,20,77.5,60,1,12299,2,1,1,5,180,9,748,5,1,0.4333739
3,20,77.5,60,1,2155,1,1,2,5,180,10,55,5,1,0.6853752
3,20,77.5,60,1,11399,2,1,2,5,180,11,298,5,1,0.3500269
3,20,77.5,60,1,6899,2,2,1,5,180,12,185,5,1,0.6334125
3,20,77.5,60,1,15799,2,1,1,5,180,13,409,5,1,0.3166506
3,20,77.5,60,1,1799,2,1,1,6,0,14,469,6,1,0.4501074
3,20,77.5,60,1,899,2,3,1,6,0,15,21,6,1,0.3166989
3,20,77.5,60,1,5299,2,2,1,6,0,16,572,6,1,0.2667319
3,20,77.5,60,1,455,1,1,2,5,180,17,10,5,1,0.3666368
3,20,77.5,60,1,11099,2,1,1,5,180,18,292,5,1,0.5500288
3,20,77.5,60,1,1399,2,3,2,6,0,19,462,6,1,0.3667544
3,20,77.5,60,1,2699,2,1,1,5,180,20,73,5,1,0.3667428
3,20,77.5,60,1,8199,2,2,2,5,180,21,647,5,1,0.5000295
3,20,77.5,60,1,6199,2,1,2,6,0,22,163,6,1,0.4687329
3,20,77.5,60,1,299,2,2,1,5,180,23,5,5,1,0.333378
3,20,77.5,60,1,3155,1,2,2,5,180,24,518,5,1,0.383269
3,20,77.5,60,1,8499,2,2,1,5,180,25,653,5,1,0.3833846
3,20,77.5,60,1,10455,1,3,1,5,180,26,693,5,1,0.2667917
3,20,77.5,60,1,3199,2,2,1,5,180,27,521,5,1,0.2334675
3,20,77.5,60,1,10899,2,2,1,5,180,28,713,5,1,0.2999636
3,20,77.5,60,1,2599,2,1,2,6,0,29,67,6,1,0.3167231
3,20,77.5,60,1,14499,2,2,1,6,0,30,821,5,0,0.2667139
3,20,77.5,60,1,9699,2,3,1,6,0,31,249,6,1,0.7000252
3,20,77.5,60,1,6855,1,3,1,5,180,32,180,5,1,0.4001378
3,20,77.5,60,1,15099,2,2,2,5,180,33,827,5,1,0.9834584
3,20,77.5,60,1,15399,2,2,2,5,180,34,407,5,1,0.3667115
3,20,77.5,60,1,1699,2,3,2,5,180,35,39,5,1,0.4001093
3,20,77.5,60,1,14299,2,2,1,6,0,36,812,5,0,0.3000247
3,20,77.5,60,1,7199,2,3,1,5,180,37,621,5,1,0.5666467
3,20,77.5,60,1,3599,2,3,2,5,180,38,531,5,1,0.4168012
3,20,77.5,60,1,5799,2,2,1,5,180,39,581,5,1,0.4001356
3,20,77.5,60,1,14199,2,2,1,5,180,40,809,5,1,0.283436
3,20,77.5,60,1,2999,2,3,2,5,180,41,510,5,1,0.4167674
3,20,77.5,60,1,11755,1,1,2,6,0,42,307,6,1,0.3500981
3,20,77.5,60,1,4299,2,1,1,6,0,43,553,6,1,0.3000583
3,20,77.5,60,1,7599,2,3,1,6,0,44,204,6,1,0.3500312
3,20,77.5,60,1,11799,2,2,2,5,180,45,311,5,1,0.3667411
3,20,77.5,60,1,15399,2,3,2,6,0,46,831,6,1,0.500114
3,20,77.5,60,1,16199,2,2,2,5,180,47,842,5,1,0.3514645
3,20,77.5,60,1,2899,2,2,1,5,180,48,80,5,1,0.5167613
3,20,77.5,60,1,5899,2,3,1,5,180,49,156,5,1,0.4000253
3,20,77.5,60,1,11599,2,1,2,6,0,50,727,6,1,0.3695498
3,20,77.5,60,1,13199,2,3,1,6,0,51,780,6,1,0.5500957
3,20,77.5,60,1,7699,2,1,2,6,0,52,634,6,1,0.2833763
3,20,77.5,60,1,2255,1,1,1,5,180,53,484,5,1,0.4834418
3,20,77.5,60,1,2255,1,1,2,6,0,54,58,6,1,0.3334625
3,20,77.5,60,1,2799,2,2,2,6,0,55,503,6,1,0.2501178
3,20,77.5,60,1,12699,2,3,2,6,0,56,762,6,1,0.2667845
3,20,77.5,60,1,13855,1,1,1,5,180,57,796,5,1,0.6500291
3,20,77.5,60,1,11199,2,2,2,5,180,58,722,5,1,0.3833832
3,20,77.5,60,1,13055,1,1,2,5,180,59,775,5,1,0.3000448
3,20,77.5,60,1,14399,2,3,1,5,180,60,816,5,1,0.4000205
3,20,77.5,60,1,9699,2,1,2,5,180,61,250,5,1,0.2833968
3,20,77.5,60,1,6355,1,2,1,6,0,62,596,6,1,0.383377
3,20,77.5,60,1,1855,1,1,1,5,180,63,472,5,1,0.4000321
3,20,77.5,60,1,7099,2,1,1,6,0,64,193,5,0,0.2842069
3,20,77.5,60,1,4899,2,1,2,5,180,65,139,5,1,0.7667207
3,20,77.5,60,1,455,1,3,1,6,0,66,9,6,1,0.3333919
3,20,77.5,60,1,12355,1,1,2,6,0,67,751,6,1,0.7167821
3,20,77.5,60,1,13899,2,1,1,5,180,68,373,5,1,0.4668085
3,20,77.5,60,1,999,2,2,2,5,180,69,26,5,1,0.7167735
3,20,77.5,60,1,3699,2,1,2,6,0,70,535,6,1,0.3833897
3,20,77.5,60,1,4199,2,2,1,5,180,71,125,5,1,0.3666753
3,20,77.5,60,1,4099,2,2,1,6,0,72,545,6,1,0.3833276
3,20,77.5,60,1,10855,1,2,2,5,180,73,710,5,1,0.3333824
3,20,77.5,60,1,11755,1,3,2,6,0,74,306,6,1,0.3333914
3,20,77.5,60,1,7199,2,1,1,6,0,75,196,5,0,0.3834035
3,20,77.5,60,1,7199,2,2,2,6,0,76,623,6,1,0.3500376
3,20,77.5,60,1,6355,1,3,1,5,180,77,168,5,1,0.4667277
3,20,77.5,60,1,3355,1,1,1,5,180,78,100,5,1,0.3001476
3,20,77.5,60,1,10355,1,3,2,5,180,79,690,5,1,0.433414
3,20,77.5,60,1,15299,2,2,1,5,180,80,404,5,1,0.3683618
3,20,77.5,60,1,3599,2,1,2,6,0,81,106,6,1,0.4500501
3,20,77.5,60,1,11799,2,3,1,5,180,82,309,5,1,0.3846954
3,20,77.5,60,1,3599,2,3,1,5,180,83,105,5,1,0.3833722
3,20,77.5,60,1,17255,1,2,2,6,0,84,422,6,1,0.3846398
3,20,77.5,60,1,8499,2,3,1,6,0,85,225,6,1,0.8334522
3,20,77.5,60,1,12699,2,2,2,5,180,86,338,5,1,0.7001311
3,20,77.5,60,1,6999,2,2,2,6,0,87,191,6,1,0.3845553
3,20,77.5,60,1,3099,2,2,2,6,0,88,515,6,1,0.2849752
3,20,77.5,60,1,7399,2,2,2,5,180,89,203,5,1,0.3167495
3,20,77.5,60,1,3799,2,3,2,6,0,90,111,6,1,0.3833653
3,20,77.5,60,1,7299,2,3,1,5,180,91,624,5,1,1.0667643
3,20,77.5,60,1,299,2,1,1,6,0,92,4,6,1,0.4167737
3,20,77.5,60,1,499,2,2,1,6,0,93,440,6,1,0.4501089
3,20,77.5,60,1,9599,2,2,2,5,180,94,674,5,1,0.4000226
3,20,77.5,60,1,8799,2,2,2,5,180,95,659,5,1,0.2667475
3,20,77.5,60,1,3699,2,3,1,6,0,96,108,6,1,0.5000794
3,20,77.5,60,1,4899,2,3,2,5,180,97,138,5,1,0.3668628
3,20,77.5,60,1,1199,2,1,2,5,180,98,31,5,1,0.2834218
3,20,77.5,60,1,6399,2,1,2,6,0,99,598,6,1,0.3000552
3,20,77.5,60,1,5799,2,1,1,6,0,100,580,6,1,0.4667107
3,20,77.5,60,1,2299,2,3,2,5,180,101,486,5,1,0.4000366
3,20,77.5,60,1,5799,2,3,1,5,180,102,153,6,0,0.4333712
3,20,77.5,60,1,6199,2,2,2,6,0,103,590,6,1,0.483341
3,20,77.5,60,1,1899,2,3,2,5,180,104,474,5,1,0.4001272
3,20,77.5,60,1,8199,2,3,2,6,0,105,219,6,1,0.3500333
3,20,77.5,60,1,12999,2,3,2,6,0,106,771,6,1,0.250143
3,20,77.5,60,1,9399,2,1,1,6,0,107,241,6,1,0.4667742
3,20,77.5,60,1,10455,1,2,1,6,0,108,269,6,1,0.3999594
3,20,77.5,60,1,1099,2,1,1,5,180,109,28,5,1,0.4667179
3,20,77.5,60,1,10855,1,2,1,6,0,110,284,5,0,0.3512124
3,20,77.5,60,1,6699,2,2,2,5,180,111,179,5,1,0.5666986
3,20,77.5,60,1,3155,1,1,2,5,180,112,91,5,1,0.4333491
3,20,77.5,60,1,199,2,3,1,6,0,113,0,6,1,0.3667014
3,20,77.5,60,1,199,2,3,2,6,0,114,426,6,1,0.4337946
3,20,77.5,60,1,9255,1,3,1,5,180,115,237,5,1,0.5667066
3,20,77.5,60,1,6399,2,3,1,5,180,116,597,5,1,0.3019201
3,20,77.5,60,1,499,2,3,2,5,180,117,438,5,1,0.7673017
3,20,77.5,60,1,17355,1,3,1,5,180,118,849,5,1,0.4667589
3,20,77.5,60,1,3399,2,1,1,6,0,119,529,6,1,0.250047
3,20,77.5,60,1,10155,1,2,1,5,180,120,260,5,1,0.484314
3,20,77.5,60,1,8699,2,3,2,6,0,121,654,6,1,0.433406
3,20,77.5,60,1,16299,2,2,1,5,180,122,845,5,1,0.4834627
3,20,77.5,60,1,15799,2,1,2,6,0,123,835,6,1,0.4333868
3,20,77.5,60,1,199,2,1,2,6,0,124,427,6,1,0.3001351
3,20,77.5,60,1,5599,2,1,2,5,180,125,574,5,1,0.5833608
3,20,77.5,60,1,10099,2,1,1,5,180,126,256,5,1,0.5833657
3,20,77.5,60,1,4999,2,2,1,5,180,127,569,5,1,0.3501628
3,20,77.5,60,1,12599,2,1,2,5,180,128,334,6,0,0.4168016
3,20,77.5,60,1,12099,2,3,2,6,0,129,738,6,1,0.4667795
3,20,77.5,60,1,199,2,1,1,5,180,130,1,5,1,0.3167796
3,20,77.5,60,1,12299,2,3,1,6,0,131,321,6,1,0.483382
3,20,77.5,60,1,6899,2,2,2,6,0,132,611,6,1,0.3333892
3,20,77.5,60,1,9255,1,3,2,6,0,133,663,6,1,0.3008997
3,20,77.5,60,1,2799,2,3,2,6,0,134,75,6,1,0.2500521
3,20,77.5,60,1,499,2,1,1,5,180,135,13,5,1,0.283356
3,20,77.5,60,1,5799,2,1,2,6,0,136,154,6,1,0.3499897
3,20,77.5,60,1,6299,2,2,2,5,180,137,167,5,1,0.3166311
3,20,77.5,60,1,12799,2,3,2,5,180,138,339,5,1,0.3666851
3,20,77.5,60,1,10599,2,2,1,6,0,139,701,6,1,0.4167731
3,20,77.5,60,1,14399,2,2,2,5,180,140,818,5,1,0.3000571
3,20,77.5,60,1,999,2,1,2,6,0,141,451,6,1,0.3361308
3,20,77.5,60,1,2655,1,3,2,5,180,142,495,5,1,0.300134
3,20,77.5,60,1,10355,1,2,2,6,0,143,266,6,1,0.4001212
3,20,77.5,60,1,3199,2,1,1,6,0,144,520,6,1,0.4833558
3,20,77.5,60,1,11755,1,3,1,5,180,145,732,5,1,0.3501159
3,20,77.5,60,1,13199,2,3,2,5,180,146,354,5,1,0.4833735
3,20,77.5,60,1,3399,2,2,2,5,180,147,530,5,1,0.2833819
3,20,77.5,60,1,2699,2,2,1,5,180,148,500,6,0,0.3333696
3,20,77.5,60,1,2399,2,3,2,6,0,149,63,6,1,0.3835018
3,20,77.5,60,1,9199,2,2,1,6,0,150,236,6,1,0.46666
3,20,77.5,60,1,14299,2,1,2,5,180,151,811,5,1,0.4667457
3,20,77.5,60,1,2999,2,2,2,6,0,152,86,6,1,0.3666646
3,20,77.5,60,1,4999,2,1,2,6,0,153,142,6,1,0.3000253
3,20,77.5,60,1,2799,2,1,1,6,0,154,76,5,0,0.3333797
3,20,77.5,60,1,999,2,3,1,6,0,155,24,6,1,0.3000358
3,20,77.5,60,1,13155,1,1,1,6,0,156,352,6,1,0.2667646
3,20,77.5,60,1,5899,2,2,2,5,180,157,158,5,1,0.3667117
3,20,77.5,60,1,7099,2,3,1,5,180,158,192,5,1,0.4167819
3,20,77.5,60,1,9399,2,3,1,5,180,159,240,5,1,0.3001317
3,20,77.5,60,1,3599,2,2,1,5,180,160,533,5,1,0.3667947
3,20,77.5,60,1,3699,2,3,2,6,0,161,534,6,1,0.383338
3,20,77.5,60,1,12199,2,2,1,6,0,162,320,6,1,0.6999981
3,20,77.5,60,1,2099,2,1,1,6,0,163,52,6,1,0.2666661
3,20,77.5,60,1,299,2,3,1,5,180,164,429,5,1,0.4000788
3,20,77.5,60,1,9499,2,2,1,6,0,165,245,6,1,0.5667551
3,20,77.5,60,1,15399,2,3,1,5,180,166,405,5,1,0.5334117
3,20,77.5,60,1,14355,1,2,2,5,180,167,815,5,1,0.416797
3,20,77.5,60,1,2399,2,2,1,6,0,168,65,6,1,0.3500081
3,20,77.5,60,1,9499,2,1,1,5,180,169,244,5,1,0.600089
3,20,77.5,60,1,3599,2,2,2,6,0,170,107,6,1,0.416705
3,20,77.5,60,1,11199,2,3,2,5,180,171,294,5,1,0.4334029
3,20,77.5,60,1,14355,1,3,1,6,0,172,813,6,1,0.6167891
3,20,77.5,60,1,10555,1,3,2,6,0,173,270,6,1,0.3341115
3,20,77.5,60,1,13499,2,1,1,5,180,174,364,5,1,0.3667107
3,20,77.5,60,1,1255,1,1,1,5,180,175,460,6,0,0.5501277
3,20,77.5,60,1,1899,2,1,1,5,180,176,49,5,1,0.516791
